ï»¿Time_s    	AccX_g    	AccY_g    	AccZ_g    	GyroX_degs  	GyroY_degs  	GyroZ_degs  	IMU_Temperature
    0.1265	 -0.003000	  0.025000	  1.010500	   -0.380000	   -0.280000	    0.270000	   24.121094
    0.1365	 -0.002000	  0.024500	  1.004500	   -0.410000	   -0.210000	    0.280000	   24.125000
    0.1465	 -0.001500	  0.023500	  1.009500	   -0.380000	   -0.160000	    0.210000	   24.140625
    0.1565	 -0.002500	  0.024000	  1.011500	   -0.380000	   -0.150000	    0.330000	   24.109375
    0.1665	 -0.000500	  0.025000	  1.003500	   -0.410000	   -0.150000	    0.260000	   24.085938
    0.1765	 -0.001000	  0.025000	  1.009500	   -0.210000	   -0.090000	    0.240000	   24.109375
    0.1865	 -0.002000	  0.024000	  1.011000	   -0.300000	   -0.150000	    0.260000	   24.093750
    0.1965	 -0.001500	  0.023500	  1.004500	   -0.260000	   -0.310000	    0.310000	   24.085938
    0.2065	 -0.001500	  0.024500	  1.010000	   -0.400000	   -0.140000	    0.220000	   24.101563
    0.2165	 -0.002500	  0.024000	  1.010000	   -0.300000	   -0.020000	    0.220000	   24.125000
    0.2265	 -0.001500	  0.025000	  1.003000	   -0.380000	   -0.030000	    0.160000	   24.109375
    0.2365	 -0.001500	  0.024000	  1.009500	   -0.430000	   -0.230000	    0.230000	   24.082031
    0.2465	 -0.001500	  0.024000	  1.011000	   -0.410000	   -0.200000	    0.260000	   24.074219
    0.2565	 -0.001000	  0.024500	  1.004500	   -0.250000	   -0.190000	    0.240000	   24.121094
    0.2665	 -0.001000	  0.023500	  1.010000	   -0.310000	   -0.190000	    0.160000	   24.125000
    0.2765	 -0.002500	  0.023500	  1.010000	   -0.480000	   -0.210000	    0.170000	   24.121094
    0.2865	 -0.000500	  0.024500	  1.004000	   -0.350000	   -0.070000	    0.300000	   24.082031
    0.2965	 -0.000500	  0.024500	  1.010500	   -0.410000	   -0.320000	    0.240000	   24.125000
    0.3065	 -0.003000	  0.023500	  1.009500	   -0.360000	   -0.050000	    0.190000	   24.128906
    0.3165	 -0.000500	  0.025500	  1.006000	   -0.430000	   -0.030000	    0.270000	   24.117188
    0.3265	 -0.001000	  0.024500	  1.010000	   -0.330000	   -0.190000	    0.240000	   24.105469
    0.3365	 -0.001000	  0.025000	  1.010500	   -0.380000	   -0.090000	    0.210000	   24.105469
    0.3465	 -0.001000	  0.025500	  1.006000	   -0.320000	   -0.150000	    0.200000	   24.117188
    0.3565	 -0.001000	  0.025000	  1.012000	   -0.340000	   -0.190000	    0.300000	   24.117188
    0.3665	 -0.001500	  0.026000	  1.009500	   -0.430000	   -0.130000	    0.200000	   24.121094
    0.3765	 -0.000500	  0.025500	  1.005500	   -0.480000	   -0.290000	    0.280000	   24.117188
    0.3865	 -0.000500	  0.025500	  1.012000	   -0.360000	   -0.240000	    0.280000	   24.093750
    0.3965	 -0.001000	  0.026000	  1.009000	   -0.310000	   -0.240000	    0.210000	   24.093750
    0.4065	 -0.001000	  0.026000	  1.007500	   -0.420000	   -0.070000	    0.320000	   24.093750
    0.4165	 -0.000500	  0.025000	  1.012000	   -0.250000	   -0.200000	    0.230000	   24.093750
    0.4266	  0.000000	  0.026500	  1.010000	   -0.440000	   -0.130000	    0.330000	   24.105469
    0.4365	 -0.000500	  0.026000	  1.007500	   -0.400000	   -0.210000	    0.140000	   24.136719
    0.4465	  0.000000	  0.026500	  1.009500	   -0.220000	   -0.110000	    0.260000	   24.117188
    0.4565	 -0.001000	  0.025500	  1.010000	   -0.400000	   -0.190000	    0.310000	   24.117188
    0.4665	 -0.001000	  0.025500	  1.008000	   -0.270000	   -0.180000	    0.180000	   24.089844
    0.4765	 -0.000500	  0.025000	  1.011000	   -0.370000	   -0.140000	    0.160000	   24.109375
    0.4865	 -0.001500	  0.024500	  1.010000	   -0.390000	   -0.280000	    0.250000	   24.117188
    0.4965	  0.000000	  0.026000	  1.007500	   -0.300000	   -0.170000	    0.200000	   24.121094
    0.5065	  0.000500	  0.025000	  1.009500	   -0.400000	   -0.110000	    0.170000	   24.117188
    0.5165	 -0.000500	  0.023500	  1.010500	   -0.390000	   -0.060000	    0.210000	   24.125000
    0.5266	 -0.001500	  0.024500	  1.006000	   -0.330000	   -0.160000	    0.150000	   24.113281
    0.5366	 -0.001000	  0.025500	  1.010000	   -0.380000	   -0.170000	    0.250000	   24.097656
    0.5465	 -0.001000	  0.024000	  1.011000	   -0.320000	   -0.040000	    0.190000	   24.101563
    0.5566	  0.000000	  0.024000	  1.004500	   -0.400000	   -0.100000	    0.180000	   24.089844
    0.5666	 -0.001000	  0.025000	  1.008000	   -0.320000	    0.040000	    0.280000	   24.109375
    0.5766	  0.000000	  0.024500	  1.011000	   -0.410000	   -0.080000	    0.300000	   24.132813
    0.5865	 -0.001500	  0.024000	  1.006500	   -0.420000	   -0.180000	    0.290000	   24.144531
    0.5966	 -0.001500	  0.024000	  1.010000	   -0.260000	   -0.130000	    0.300000	   24.140625
    0.6066	 -0.000500	  0.023500	  1.009500	   -0.390000	   -0.140000	    0.230000	   24.128906
    0.6165	 -0.001000	  0.024500	  1.006500	   -0.410000	   -0.160000	    0.310000	   24.125000
    0.6266	 -0.001500	  0.024500	  1.008500	   -0.450000	   -0.110000	    0.220000	   24.128906
    0.6366	 -0.001000	  0.023500	  1.010000	   -0.350000	   -0.120000	    0.190000	   24.132813
    0.6466	 -0.002000	  0.024500	  1.005000	   -0.360000	   -0.140000	    0.220000	   24.082031
    0.6566	  0.000500	  0.024500	  1.009000	   -0.370000	   -0.160000	    0.230000	   24.097656
    0.6666	 -0.001500	  0.024500	  1.008500	   -0.460000	   -0.100000	    0.410000	   24.105469
    0.6766	 -0.001500	  0.026500	  1.005500	   -0.350000	   -0.190000	    0.210000	   24.101563
    0.6866	 -0.001500	  0.023000	  1.011000	   -0.270000	   -0.090000	    0.270000	   24.113281
    0.6966	 -0.001500	  0.023500	  1.008500	   -0.290000	   -0.070000	    0.110000	   24.109375
    0.7066	  0.000000	  0.024500	  1.006000	   -0.300000	   -0.130000	    0.200000	   24.109375
    0.7166	 -0.002500	  0.024500	  1.010500	   -0.440000	   -0.130000	    0.360000	   24.101563
    0.7266	 -0.001000	  0.024500	  1.009500	   -0.240000	   -0.100000	    0.250000	   24.109375
    0.7366	 -0.000500	  0.024000	  1.006500	   -0.360000	   -0.180000	    0.230000	   24.117188
    0.7466	 -0.001500	  0.026000	  1.011000	   -0.300000	   -0.070000	    0.260000	   24.101563
    0.7566	 -0.001500	  0.025000	  1.009000	   -0.420000	   -0.210000	    0.240000	   24.109375
    0.7666	 -0.001000	  0.024500	  1.007500	   -0.310000	   -0.050000	    0.270000	   24.121094
    0.7766	 -0.001000	  0.025000	  1.011500	   -0.410000	   -0.020000	    0.130000	   24.125000
    0.7866	 -0.002500	  0.025000	  1.007500	   -0.330000	   -0.160000	    0.260000	   24.121094
    0.7966	 -0.001500	  0.025500	  1.007000	   -0.430000	   -0.200000	    0.240000	   24.136719
    0.8066	 -0.001500	  0.025500	  1.009500	   -0.450000	   -0.050000	    0.150000	   24.132813
    0.8166	 -0.002500	  0.026000	  1.007000	   -0.370000	   -0.330000	    0.210000	   24.125000
    0.8266	 -0.003000	  0.025500	  1.007000	   -0.290000	   -0.140000	    0.210000	   24.121094
    0.8366	 -0.001500	  0.025000	  1.009000	   -0.370000	   -0.090000	    0.150000	   24.132813
    0.8466	 -0.001000	  0.025000	  1.009500	   -0.400000	   -0.150000	    0.230000	   24.128906
    0.8566	 -0.002000	  0.024500	  1.009000	   -0.350000	   -0.090000	    0.210000	   24.109375
    0.8666	 -0.001500	  0.025500	  1.009500	   -0.260000	   -0.250000	    0.280000	   24.101563
    0.8766	 -0.001000	  0.025000	  1.009000	   -0.430000	   -0.110000	    0.200000	   24.121094
    0.8866	 -0.001500	  0.026000	  1.007500	   -0.300000	   -0.070000	    0.220000	   24.125000
    0.8966	 -0.001500	  0.025000	  1.008500	   -0.340000	   -0.190000	    0.280000	   24.105469
    0.9066	 -0.001000	  0.025000	  1.008000	   -0.360000	   -0.090000	    0.190000	   24.085938
    0.9166	 -0.001000	  0.024500	  1.007500	   -0.420000	   -0.190000	    0.240000	   24.125000
    0.9266	 -0.000500	  0.024500	  1.007000	   -0.420000	   -0.040000	    0.270000	   24.109375
    0.9366	 -0.002000	  0.025500	  1.009000	   -0.270000	   -0.270000	    0.190000	   24.085938
    0.9466	 -0.001500	  0.025000	  1.008500	   -0.400000	   -0.240000	    0.270000	   24.113281
    0.9566	 -0.001000	  0.024000	  1.008000	   -0.450000	   -0.160000	    0.160000	   24.128906
    0.9666	 -0.002500	  0.026500	  1.007500	   -0.340000	   -0.040000	    0.230000	   24.125000
    0.9766	 -0.000500	  0.026000	  1.009000	   -0.400000	   -0.100000	    0.220000	   24.117188
    0.9866	 -0.000500	  0.024500	  1.007500	   -0.340000	   -0.140000	    0.150000	   24.109375
    0.9966	 -0.002000	  0.026000	  1.007500	   -0.360000	   -0.140000	    0.230000	   24.113281
    1.0066	 -0.001500	  0.025000	  1.008000	   -0.430000	   -0.070000	    0.250000	   24.109375
    1.0166	  0.000000	  0.025000	  1.007500	   -0.400000	   -0.150000	    0.320000	   24.109375
    1.0266	 -0.001000	  0.026000	  1.008500	   -0.390000	   -0.200000	    0.290000	   24.101563
    1.0366	 -0.001000	  0.025500	  1.008500	   -0.450000	   -0.190000	    0.220000	   24.097656
    1.0466	 -0.000500	  0.026000	  1.008500	   -0.410000	   -0.110000	    0.300000	   24.121094
    1.0566	 -0.002000	  0.024000	  1.008000	   -0.390000	   -0.080000	    0.280000	   24.132813
    1.0666	 -0.002000	  0.025000	  1.009000	   -0.400000	   -0.070000	    0.280000	   24.101563
    1.0766	  0.000000	  0.024500	  1.008000	   -0.480000	   -0.060000	    0.290000	   24.132813
    1.0866	 -0.002000	  0.025500	  1.009000	   -0.390000	   -0.170000	    0.320000	   24.125000
    1.0966	 -0.001000	  0.024000	  1.009000	   -0.480000	   -0.210000	    0.210000	   24.117188
    1.1066	 -0.001500	  0.025000	  1.008000	   -0.340000	   -0.180000	    0.300000	   24.117188
    1.1166	 -0.001500	  0.025000	  1.008500	   -0.300000	   -0.110000	    0.200000	   24.136719
    1.1266	 -0.000500	  0.025000	  1.008500	   -0.460000	    0.010000	    0.250000	   24.132813
    1.1366	 -0.001000	  0.024500	  1.008000	   -0.370000	   -0.250000	    0.350000	   24.121094
    1.1466	 -0.000500	  0.025000	  1.009000	   -0.360000	   -0.180000	    0.290000	   24.117188
    1.1566	 -0.001500	  0.024500	  1.008000	   -0.380000	   -0.160000	    0.220000	   24.113281
    1.1666	 -0.001000	  0.025500	  1.007000	   -0.280000	   -0.080000	    0.310000	   24.105469
    1.1766	 -0.001500	  0.025000	  1.009000	   -0.350000	   -0.260000	    0.270000	   24.097656
    1.1866	 -0.000500	  0.025500	  1.008500	   -0.450000	   -0.200000	    0.320000	   24.125000
    1.1966	 -0.000500	  0.025500	  1.009000	   -0.300000	   -0.140000	    0.220000	   24.140625
    1.2066	 -0.001000	  0.024000	  1.008000	   -0.420000	   -0.270000	    0.260000	   24.148438
    1.2166	 -0.001500	  0.024500	  1.009000	   -0.320000	   -0.170000	    0.250000	   24.152344
    1.2266	 -0.001500	  0.024500	  1.006500	   -0.320000	   -0.050000	    0.210000	   24.132813
    1.2366	 -0.002000	  0.025000	  1.007500	   -0.480000	   -0.190000	    0.310000	   24.101563
    1.2466	 -0.001500	  0.026000	  1.009500	   -0.380000	   -0.060000	    0.330000	   24.113281
    1.2566	 -0.001000	  0.025000	  1.007000	   -0.370000	   -0.050000	    0.190000	   24.125000
    1.2666	 -0.001000	  0.025000	  1.007000	   -0.310000	   -0.180000	    0.220000	   24.132813
    1.2766	 -0.000500	  0.025500	  1.009500	   -0.310000	   -0.210000	    0.300000	   24.121094
    1.2866	  0.000500	  0.025000	  1.008500	   -0.400000	   -0.120000	    0.390000	   24.117188
    1.2966	 -0.002000	  0.024500	  1.008000	   -0.490000	   -0.210000	    0.280000	   24.125000
    1.3066	 -0.001500	  0.025500	  1.009000	   -0.460000	   -0.180000	    0.200000	   24.109375
    1.3166	 -0.000500	  0.024500	  1.008500	   -0.330000	   -0.200000	    0.180000	   24.121094
    1.3266	 -0.001500	  0.025500	  1.009500	   -0.450000	   -0.180000	    0.260000	   24.136719
    1.3366	 -0.002000	  0.024500	  1.007000	   -0.480000	   -0.200000	    0.250000	   24.132813
    1.3466	 -0.002000	  0.026000	  1.010500	   -0.380000	   -0.140000	    0.160000	   24.128906
    1.3568	 -0.001500	  0.025500	  1.007000	   -0.450000	   -0.130000	    0.160000	   24.128906
    1.3666	 -0.002000	  0.025000	  1.010500	   -0.350000	   -0.250000	    0.210000	   24.156250
    1.3766	 -0.001500	  0.025500	  1.008000	   -0.360000	   -0.130000	    0.190000	   24.128906
    1.3866	 -0.000500	  0.025500	  1.008000	   -0.410000	    0.060000	    0.210000	   24.125000
    1.3966	 -0.001500	  0.025000	  1.008000	   -0.330000	   -0.190000	    0.290000	   24.128906
    1.4066	 -0.002000	  0.024500	  1.009000	   -0.380000	   -0.040000	    0.260000	   24.136719
    1.4166	 -0.001000	  0.024000	  1.008500	   -0.310000	   -0.120000	    0.320000	   24.121094
    1.4266	 -0.001500	  0.024500	  1.008000	   -0.260000	   -0.190000	    0.230000	   24.109375
    1.4366	 -0.002500	  0.025000	  1.008500	   -0.300000	   -0.120000	    0.270000	   24.144531
    1.4466	 -0.000500	  0.024000	  1.009000	   -0.310000	   -0.240000	    0.270000	   24.140625
    1.4566	 -0.001000	  0.024500	  1.009000	   -0.330000	    0.000000	    0.240000	   24.132813
    1.4666	 -0.002000	  0.025000	  1.009000	   -0.380000	   -0.120000	    0.270000	   24.117188
    1.4766	 -0.001500	  0.024500	  1.008500	   -0.340000	   -0.140000	    0.310000	   24.113281
    1.4866	  0.000000	  0.024500	  1.007000	   -0.420000	   -0.100000	    0.210000	   24.101563
    1.4966	 -0.002000	  0.024500	  1.008000	   -0.300000	   -0.120000	    0.270000	   24.113281
    1.5066	 -0.001000	  0.025000	  1.007000	   -0.410000	   -0.130000	    0.370000	   24.128906
    1.5166	 -0.001500	  0.025000	  1.009000	   -0.370000	   -0.090000	    0.280000	   24.125000
    1.5266	 -0.001500	  0.024500	  1.007500	   -0.480000	   -0.200000	    0.300000	   24.105469
    1.5366	 -0.002000	  0.025000	  1.009000	   -0.310000	   -0.070000	    0.260000	   24.113281
    1.5466	 -0.001500	  0.024000	  1.007000	   -0.360000	   -0.040000	    0.290000	   24.136719
    1.5566	 -0.001500	  0.025000	  1.009500	   -0.340000	   -0.100000	    0.270000	   24.136719
    1.5666	 -0.002500	  0.024000	  1.007500	   -0.430000	   -0.250000	    0.370000	   24.132813
    1.5766	 -0.002500	  0.025000	  1.008500	   -0.250000	   -0.200000	    0.170000	   24.136719
    1.5866	 -0.001500	  0.025000	  1.008500	   -0.420000	   -0.250000	    0.340000	   24.117188
    1.5966	 -0.002000	  0.025500	  1.008500	   -0.430000	   -0.260000	    0.130000	   24.121094
    1.6066	 -0.001500	  0.024500	  1.009000	   -0.260000	   -0.140000	    0.270000	   24.144531
    1.6166	 -0.001000	  0.024000	  1.007500	   -0.390000	   -0.130000	    0.160000	   24.128906
    1.6266	 -0.001000	  0.025500	  1.008500	   -0.430000	   -0.130000	    0.240000	   24.144531
    1.6366	 -0.001000	  0.025500	  1.009000	   -0.420000	   -0.150000	    0.240000	   24.132813
    1.6466	  0.000000	  0.024000	  1.008000	   -0.410000	   -0.070000	    0.240000	   24.136719
    1.6566	 -0.001500	  0.026000	  1.008500	   -0.340000	   -0.020000	    0.240000	   24.140625
    1.6666	 -0.001000	  0.026000	  1.008500	   -0.320000	   -0.150000	    0.330000	   24.140625
    1.6766	 -0.000500	  0.024500	  1.008000	   -0.370000	   -0.180000	    0.280000	   24.132813
    1.6866	 -0.001500	  0.026000	  1.008500	   -0.380000	   -0.190000	    0.200000	   24.105469
    1.6966	 -0.001500	  0.024500	  1.008500	   -0.370000	   -0.010000	    0.300000	   24.109375
    1.7066	 -0.000500	  0.025500	  1.007500	   -0.300000	   -0.130000	    0.250000	   24.101563
    1.7166	 -0.001000	  0.025000	  1.008000	   -0.380000	   -0.060000	    0.210000	   24.105469
    1.7266	 -0.001000	  0.025000	  1.008000	   -0.380000	   -0.030000	    0.250000	   24.117188
    1.7366	 -0.001500	  0.025500	  1.008500	   -0.330000	   -0.030000	    0.170000	   24.117188
    1.7466	 -0.001500	  0.025500	  1.010000	   -0.420000	   -0.170000	    0.080000	   24.113281
    1.7566	  0.000000	  0.025000	  1.007500	   -0.440000	   -0.200000	    0.260000	   24.117188
    1.7666	 -0.000500	  0.025500	  1.009500	   -0.310000	   -0.090000	    0.200000	   24.101563
    1.7766	 -0.001000	  0.024000	  1.009000	   -0.280000	   -0.030000	    0.290000	   24.117188
    1.7866	  0.000000	  0.024000	  1.008000	   -0.480000	   -0.070000	    0.270000	   24.148438
    1.7966	 -0.001000	  0.026000	  1.008000	   -0.450000	   -0.150000	    0.260000	   24.132813
    1.8066	 -0.002000	  0.025000	  1.009000	   -0.390000	   -0.100000	    0.290000	   24.113281
    1.8166	 -0.001500	  0.024500	  1.008000	   -0.400000	   -0.140000	    0.280000	   24.125000
    1.8266	 -0.001500	  0.023500	  1.008500	   -0.470000	   -0.240000	    0.240000	   24.113281
    1.8366	 -0.001500	  0.025000	  1.009000	   -0.440000	   -0.270000	    0.240000	   24.128906
    1.8466	 -0.001000	  0.025000	  1.007000	   -0.420000	   -0.040000	    0.140000	   24.117188
    1.8566	  0.000000	  0.025500	  1.008000	   -0.330000	    0.000000	    0.230000	   24.121094
    1.8666	 -0.001500	  0.024500	  1.007000	   -0.270000	   -0.130000	    0.240000	   24.156250
    1.8766	 -0.000500	  0.024500	  1.009500	   -0.380000	   -0.260000	    0.190000	   24.148438
    1.8866	 -0.001000	  0.024000	  1.008000	   -0.290000	   -0.010000	    0.250000	   24.136719
    1.8966	 -0.001000	  0.025000	  1.007500	   -0.290000	   -0.170000	    0.260000	   24.125000
    1.9067	 -0.001500	  0.026000	  1.008000	   -0.350000	   -0.190000	    0.290000	   24.148438
    1.9166	 -0.000500	  0.024500	  1.007500	   -0.430000	   -0.170000	    0.390000	   24.144531
    1.9266	 -0.002000	  0.025500	  1.007000	   -0.360000	   -0.180000	    0.310000	   24.140625
    1.9366	 -0.002000	  0.025500	  1.010000	   -0.350000	   -0.230000	    0.330000	   24.128906
    1.9466	 -0.000500	  0.024000	  1.008000	   -0.290000	   -0.070000	    0.250000	   24.109375
    1.9566	 -0.002000	  0.026000	  1.009500	   -0.410000	   -0.250000	    0.260000	   24.128906
    1.9666	 -0.002000	  0.023500	  1.009000	   -0.370000	   -0.030000	    0.230000	   24.132813
    1.9766	  0.000000	  0.024500	  1.007500	   -0.330000	   -0.030000	    0.220000	   24.132813
    1.9866	 -0.002500	  0.024000	  1.007500	   -0.470000	   -0.230000	    0.240000	   24.136719
    1.9966	 -0.002500	  0.024500	  1.009000	   -0.380000	   -0.090000	    0.250000	   24.136719
    2.0066	 -0.001000	  0.025500	  1.008500	   -0.410000	   -0.090000	    0.240000	   24.128906
    2.0166	 -0.001500	  0.024500	  1.009000	   -0.360000	   -0.030000	    0.250000	   24.101563
    2.0266	 -0.002500	  0.025000	  1.008000	   -0.330000	   -0.120000	    0.220000	   24.117188
    2.0366	 -0.001500	  0.025000	  1.008000	   -0.360000	   -0.050000	    0.300000	   24.113281
    2.0469	 -0.001000	  0.025500	  1.009500	   -0.320000	   -0.210000	    0.150000	   24.125000
    2.0566	 -0.001500	  0.025000	  1.008000	   -0.320000	   -0.190000	    0.140000	   24.128906
    2.0666	 -0.001500	  0.026000	  1.009500	   -0.360000	   -0.210000	    0.300000	   24.117188
    2.0766	 -0.000500	  0.025000	  1.008000	   -0.390000	   -0.170000	    0.250000	   24.128906
    2.0866	 -0.002000	  0.025500	  1.008000	   -0.300000	   -0.220000	    0.180000	   24.117188
    2.0966	 -0.002000	  0.025000	  1.007000	   -0.340000	   -0.050000	    0.210000	   24.136719
    2.1066	 -0.001500	  0.024500	  1.009500	   -0.420000	   -0.030000	    0.290000	   24.109375
    2.1167	 -0.002000	  0.023500	  1.007500	   -0.380000	   -0.170000	    0.270000	   24.128906
    2.1266	 -0.001500	  0.026500	  1.009000	   -0.350000	   -0.020000	    0.300000	   24.140625
    2.1366	 -0.001000	  0.023500	  1.005500	   -0.420000	   -0.160000	    0.330000	   24.117188
    2.1466	 -0.000500	  0.026000	  1.009000	   -0.310000	   -0.100000	    0.300000	   24.132813
    2.1566	 -0.002500	  0.023500	  1.006500	   -0.300000	   -0.280000	    0.360000	   24.136719
    2.1666	 -0.002000	  0.025000	  1.008000	   -0.330000	   -0.160000	    0.260000	   24.136719
    2.1766	 -0.002000	  0.025500	  1.008000	   -0.270000	   -0.050000	    0.280000	   24.140625
    2.1866	 -0.001000	  0.026000	  1.008500	   -0.470000	   -0.220000	    0.320000	   24.140625
    2.1966	 -0.001500	  0.025000	  1.008000	   -0.380000	   -0.100000	    0.290000	   24.156250
    2.2066	 -0.001500	  0.025000	  1.009000	   -0.460000	   -0.260000	    0.270000	   24.148438
    2.2167	 -0.001000	  0.025500	  1.007000	   -0.460000	   -0.240000	    0.250000	   24.125000
    2.2266	 -0.002500	  0.024500	  1.007500	   -0.440000	   -0.340000	    0.340000	   24.140625
    2.2366	 -0.001500	  0.025000	  1.008500	   -0.380000	   -0.140000	    0.280000	   24.136719
    2.2466	 -0.001500	  0.025000	  1.006500	   -0.370000	   -0.210000	    0.260000	   24.113281
    2.2566	 -0.002000	  0.025500	  1.009500	   -0.440000	   -0.210000	    0.320000	   24.121094
    2.2666	 -0.001000	  0.025000	  1.007000	   -0.310000	   -0.170000	    0.250000	   24.144531
    2.2766	 -0.000500	  0.026000	  1.008500	   -0.400000	   -0.150000	    0.250000	   24.144531
    2.2866	 -0.001000	  0.024500	  1.007500	   -0.360000	   -0.100000	    0.330000	   24.125000
    2.2966	  0.000500	  0.025000	  1.008500	   -0.340000	   -0.120000	    0.280000	   24.125000
    2.3066	 -0.001000	  0.024500	  1.007000	   -0.430000	   -0.200000	    0.260000	   24.156250
    2.3167	 -0.001500	  0.026500	  1.008500	   -0.310000	   -0.100000	    0.280000	   24.132813
    2.3266	 -0.000500	  0.024500	  1.007000	   -0.380000	   -0.280000	    0.360000	   24.109375
    2.3366	 -0.001500	  0.024000	  1.009000	   -0.450000	   -0.210000	    0.270000	   24.113281
    2.3466	 -0.000500	  0.024500	  1.008000	   -0.380000	   -0.150000	    0.160000	   24.121094
    2.3566	 -0.000500	  0.024000	  1.008500	   -0.420000	   -0.030000	    0.110000	   24.121094
    2.3666	 -0.000500	  0.024000	  1.008500	   -0.310000	   -0.090000	    0.200000	   24.132813
    2.3766	 -0.000500	  0.025000	  1.008500	   -0.450000	   -0.270000	    0.200000	   24.125000
    2.3866	 -0.002000	  0.025000	  1.008000	   -0.410000	   -0.140000	    0.390000	   24.121094
    2.3966	  0.000000	  0.024500	  1.008000	   -0.370000	   -0.130000	    0.290000	   24.125000
    2.4066	 -0.000500	  0.024500	  1.009500	   -0.440000	   -0.140000	    0.310000	   24.136719
    2.4167	 -0.001500	  0.025500	  1.008000	   -0.270000	   -0.070000	    0.140000	   24.132813
    2.4266	 -0.000500	  0.025000	  1.009500	   -0.390000	   -0.020000	    0.370000	   24.140625
    2.4366	 -0.001500	  0.025500	  1.008000	   -0.460000	   -0.110000	    0.180000	   24.148438
    2.4466	 -0.001000	  0.025500	  1.008000	   -0.350000	   -0.210000	    0.310000	   24.132813
    2.4566	 -0.001500	  0.025500	  1.008000	   -0.380000	   -0.060000	    0.270000	   24.125000
    2.4666	 -0.002000	  0.026000	  1.007000	   -0.360000	   -0.040000	    0.180000	   24.117188
    2.4766	 -0.001500	  0.025000	  1.008000	   -0.430000	   -0.210000	    0.160000	   24.105469
    2.4866	 -0.000500	  0.024500	  1.007500	   -0.390000	   -0.210000	    0.300000	   24.125000
    2.4966	 -0.001500	  0.025500	  1.006500	   -0.380000	   -0.130000	    0.200000	   24.128906
    2.5066	 -0.001000	  0.025500	  1.007000	   -0.470000	   -0.160000	    0.300000	   24.136719
    2.5167	 -0.001000	  0.024500	  1.008500	   -0.350000	   -0.060000	    0.240000	   24.152344
    2.5266	 -0.001500	  0.024500	  1.007000	   -0.390000	   -0.110000	    0.170000	   24.136719
    2.5366	 -0.002500	  0.024500	  1.009500	   -0.170000	   -0.060000	    0.130000	   24.125000
    2.5466	 -0.002000	  0.025000	  1.007000	   -0.370000	   -0.180000	    0.190000	   24.109375
    2.5566	 -0.001500	  0.025500	  1.008000	   -0.400000	   -0.190000	    0.230000	   24.117188
    2.5666	 -0.001000	  0.025500	  1.007500	   -0.390000	   -0.240000	    0.210000	   24.136719
    2.5766	 -0.002000	  0.025500	  1.008500	   -0.370000	   -0.050000	    0.220000	   24.128906
    2.5866	 -0.002000	  0.025500	  1.008000	   -0.420000	   -0.120000	    0.180000	   24.117188
    2.5966	 -0.001000	  0.025500	  1.008500	   -0.410000	   -0.160000	    0.300000	   24.132813
    2.6066	 -0.001500	  0.025000	  1.008000	   -0.380000	   -0.090000	    0.290000	   24.128906
    2.6167	 -0.002000	  0.025000	  1.008000	   -0.340000	   -0.180000	    0.200000	   24.140625
    2.6266	 -0.002000	  0.025500	  1.009000	   -0.250000	   -0.060000	    0.140000	   24.144531
    2.6366	 -0.000500	  0.024500	  1.007000	   -0.360000	   -0.080000	    0.240000	   24.148438
    2.6466	 -0.002000	  0.025000	  1.007000	   -0.420000	   -0.130000	    0.270000	   24.140625
    2.6566	 -0.001500	  0.025000	  1.006000	   -0.430000	   -0.140000	    0.280000	   24.152344
    2.6666	 -0.002000	  0.026000	  1.009000	   -0.420000	   -0.140000	    0.330000	   24.152344
    2.6766	 -0.003000	  0.023500	  1.008000	   -0.310000	   -0.130000	    0.240000	   24.152344
    2.6866	 -0.001000	  0.026000	  1.009000	   -0.330000	   -0.150000	    0.320000	   24.128906
    2.6966	 -0.002000	  0.024000	  1.007500	   -0.350000	   -0.180000	    0.250000	   24.128906
    2.7066	 -0.002000	  0.025000	  1.009000	   -0.370000	   -0.080000	    0.280000	   24.121094
    2.7167	 -0.001500	  0.025000	  1.007500	   -0.470000	   -0.070000	    0.180000	   24.144531
    2.7266	 -0.002500	  0.026500	  1.009500	   -0.460000	   -0.140000	    0.220000	   24.152344
    2.7366	 -0.000500	  0.025000	  1.007000	   -0.330000	   -0.100000	    0.300000	   24.156250
    2.7466	 -0.001500	  0.026500	  1.009000	   -0.350000	   -0.150000	    0.330000	   24.128906
    2.7567	 -0.002500	  0.024500	  1.008000	   -0.260000	   -0.220000	    0.240000	   24.121094
    2.7666	 -0.001000	  0.026000	  1.007000	   -0.370000	   -0.220000	    0.160000	   24.128906
    2.7766	 -0.000500	  0.025500	  1.008000	   -0.480000	   -0.200000	    0.300000	   24.132813
    2.7866	 -0.001500	  0.024500	  1.007500	   -0.420000	   -0.020000	    0.210000	   24.136719
    2.7966	 -0.001000	  0.024500	  1.007500	   -0.420000	   -0.160000	    0.290000	   24.117188
    2.8067	 -0.002000	  0.024500	  1.009000	   -0.380000	   -0.140000	    0.260000	   24.117188
    2.8167	 -0.001500	  0.024000	  1.007000	   -0.410000	   -0.170000	    0.230000	   24.132813
    2.8266	 -0.002000	  0.025000	  1.007500	   -0.400000	   -0.260000	    0.290000	   24.152344
    2.8367	 -0.000500	  0.024000	  1.008000	   -0.360000	   -0.060000	    0.240000	   24.148438
    2.8467	  0.000000	  0.025000	  1.008000	   -0.340000	   -0.230000	    0.260000	   24.144531
    2.8567	 -0.001500	  0.024500	  1.007000	   -0.420000	   -0.140000	    0.200000	   24.136719
    2.8667	 -0.001000	  0.024000	  1.010000	   -0.370000	   -0.150000	    0.260000	   24.132813
    2.8767	 -0.000500	  0.023500	  1.007500	   -0.510000	   -0.300000	    0.230000	   24.140625
    2.8867	 -0.000500	  0.024500	  1.009500	   -0.480000	   -0.070000	    0.340000	   24.132813
    2.8967	  0.000000	  0.024500	  1.007500	   -0.330000	   -0.260000	    0.220000	   24.121094
    2.9067	  0.000500	  0.023500	  1.008000	   -0.460000	   -0.250000	    0.210000	   24.128906
    2.9167	 -0.001500	  0.024500	  1.009500	   -0.490000	   -0.140000	    0.240000	   24.132813
    2.9267	 -0.000500	  0.025000	  1.008000	   -0.390000	   -0.080000	    0.220000	   24.132813
    2.9367	 -0.000500	  0.025000	  1.009500	   -0.440000	   -0.150000	    0.280000	   24.121094
    2.9467	  0.000000	  0.026000	  1.008000	   -0.370000	   -0.050000	    0.270000	   24.148438
    2.9567	 -0.000500	  0.025000	  1.009000	   -0.320000	    0.020000	    0.260000	   24.132813
    2.9667	 -0.000500	  0.025000	  1.008500	   -0.390000	   -0.050000	    0.180000	   24.132813
    2.9767	  0.000000	  0.026000	  1.009000	   -0.390000	    0.000000	    0.280000	   24.132813
    2.9867	 -0.001500	  0.025000	  1.008000	   -0.340000	   -0.140000	    0.290000	   24.140625
    2.9967	 -0.001000	  0.025500	  1.008500	   -0.460000	   -0.170000	    0.220000	   24.136719
    3.0067	 -0.000500	  0.025000	  1.008500	   -0.310000	   -0.100000	    0.210000	   24.117188
    3.0167	 -0.000500	  0.025000	  1.010000	   -0.380000	   -0.120000	    0.350000	   24.140625
    3.0267	 -0.000500	  0.025000	  1.008000	   -0.370000	   -0.170000	    0.280000	   24.136719
    3.0367	 -0.002500	  0.025000	  1.009500	   -0.370000	   -0.170000	    0.320000	   24.148438
    3.0467	 -0.001000	  0.026500	  1.008000	   -0.410000	   -0.120000	    0.170000	   24.144531
    3.0570	 -0.000500	  0.025500	  1.006500	   -0.430000	   -0.200000	    0.290000	   24.152344
    3.0667	 -0.002000	  0.026000	  1.010000	   -0.410000	   -0.050000	    0.290000	   24.164063
    3.0767	 -0.001000	  0.024500	  1.006500	   -0.470000	   -0.120000	    0.230000	   24.144531
    3.0867	 -0.001000	  0.026000	  1.008500	   -0.500000	   -0.080000	    0.330000	   24.171875
    3.0967	 -0.002000	  0.024500	  1.008000	   -0.430000	   -0.080000	    0.310000	   24.160156
    3.1067	 -0.000500	  0.026000	  1.006500	   -0.390000	   -0.120000	    0.310000	   24.136719
    3.1167	  0.000000	  0.025000	  1.006000	   -0.410000	   -0.190000	    0.300000	   24.140625
    3.1267	 -0.001000	  0.025500	  1.009000	   -0.380000	   -0.110000	    0.270000	   24.136719
    3.1367	 -0.001000	  0.025500	  1.006500	   -0.350000	   -0.090000	    0.280000	   24.171875
    3.1467	 -0.000500	  0.025000	  1.007000	   -0.510000	   -0.140000	    0.190000	   24.175781
    3.1567	 -0.001500	  0.025000	  1.007500	   -0.400000	   -0.110000	    0.270000	   24.175781
    3.1667	 -0.001500	  0.025500	  1.008500	   -0.390000	   -0.200000	    0.260000	   24.156250
    3.1767	  0.000500	  0.025000	  1.008500	   -0.380000	   -0.080000	    0.150000	   24.156250
    3.1867	 -0.001500	  0.025500	  1.008000	   -0.300000	   -0.150000	    0.190000	   24.183594
    3.1967	 -0.003500	  0.024500	  1.009500	   -0.330000	   -0.130000	    0.350000	   24.179688
    3.2067	 -0.001500	  0.024500	  1.008500	   -0.420000	   -0.030000	    0.320000	   24.164063
    3.2167	 -0.003000	  0.025500	  1.010500	   -0.410000	   -0.080000	    0.290000	   24.167969
    3.2267	 -0.003000	  0.025000	  1.008000	   -0.260000	   -0.010000	    0.220000	   24.160156
    3.2367	 -0.000500	  0.024500	  1.008500	   -0.370000	   -0.110000	    0.260000	   24.148438
    3.2467	 -0.001000	  0.025500	  1.009000	   -0.430000	   -0.220000	    0.190000	   24.140625
    3.2567	 -0.001000	  0.025500	  1.006500	   -0.390000	   -0.220000	    0.300000	   24.140625
    3.2667	 -0.001500	  0.025500	  1.008000	   -0.470000	   -0.070000	    0.230000	   24.121094
    3.2767	 -0.002000	  0.025500	  1.008500	   -0.350000	    0.010000	    0.190000	   24.152344
    3.2867	 -0.001500	  0.025000	  1.007500	   -0.250000	   -0.170000	    0.230000	   24.148438
    3.2967	 -0.002500	  0.026000	  1.008500	   -0.310000	   -0.040000	    0.330000	   24.125000
    3.3067	 -0.002000	  0.025000	  1.008000	   -0.400000	   -0.120000	    0.270000	   24.132813
    3.3167	 -0.002000	  0.025500	  1.007000	   -0.440000	   -0.050000	    0.250000	   24.136719
    3.3267	 -0.002000	  0.025000	  1.007000	   -0.430000	   -0.080000	    0.250000	   24.156250
    3.3367	 -0.002000	  0.025000	  1.009000	   -0.340000	    0.000000	    0.190000	   24.148438
    3.3467	 -0.001500	  0.024500	  1.006500	   -0.460000	   -0.250000	    0.220000	   24.148438
    3.3567	 -0.001000	  0.023000	  1.007500	   -0.310000	   -0.100000	    0.210000	   24.164063
    3.3667	 -0.001500	  0.024000	  1.007500	   -0.360000	   -0.030000	    0.270000	   24.160156
    3.3767	 -0.002500	  0.024000	  1.006000	   -0.410000	   -0.110000	    0.320000	   24.152344
    3.3867	 -0.002000	  0.025000	  1.009000	   -0.400000	   -0.190000	    0.270000	   24.148438
    3.3967	 -0.002000	  0.025000	  1.007500	   -0.400000	   -0.190000	    0.400000	   24.183594
    3.4067	 -0.002500	  0.025500	  1.008000	   -0.430000	   -0.190000	    0.320000	   24.175781
    3.4167	 -0.001500	  0.024500	  1.008000	   -0.460000	   -0.110000	    0.250000	   24.164063
    3.4267	 -0.002000	  0.026500	  1.007500	   -0.300000	   -0.120000	    0.210000	   24.171875
    3.4367	 -0.001000	  0.024500	  1.007000	   -0.450000	   -0.190000	    0.350000	   24.140625
    3.4467	 -0.001500	  0.025000	  1.010000	   -0.380000	   -0.210000	    0.270000	   24.144531
    3.4567	 -0.002000	  0.024500	  1.006500	   -0.360000	   -0.080000	    0.220000	   24.167969
    3.4667	 -0.002000	  0.025500	  1.008000	   -0.170000	   -0.150000	    0.100000	   24.148438
    3.4767	 -0.001500	  0.026000	  1.007000	   -0.410000	   -0.120000	    0.230000	   24.160156
    3.4867	 -0.002500	  0.025000	  1.008500	   -0.490000	   -0.260000	    0.200000	   24.164063
    3.4967	 -0.001500	  0.024000	  1.007000	   -0.460000	   -0.220000	    0.320000	   24.132813
    3.5067	 -0.001000	  0.024500	  1.009000	   -0.260000	   -0.090000	    0.170000	   24.136719
    3.5167	 -0.001000	  0.025000	  1.008500	   -0.320000	   -0.080000	    0.320000	   24.156250
    3.5267	 -0.001000	  0.024500	  1.008500	   -0.270000	   -0.080000	    0.230000	   24.156250
    3.5367	 -0.002500	  0.026000	  1.009500	   -0.290000	   -0.160000	    0.230000	   24.156250
    3.5467	 -0.000500	  0.025500	  1.006500	   -0.370000	   -0.050000	    0.260000	   24.140625
    3.5567	 -0.000500	  0.025000	  1.010000	   -0.320000	   -0.110000	    0.220000	   24.132813
    3.5667	 -0.001000	  0.025500	  1.008000	   -0.430000	   -0.190000	    0.230000	   24.152344
    3.5767	 -0.001000	  0.025000	  1.008000	   -0.520000	   -0.200000	    0.210000	   24.148438
    3.5867	 -0.001500	  0.025500	  1.008500	   -0.420000	   -0.190000	    0.370000	   24.156250
    3.5967	 -0.001500	  0.025500	  1.008000	   -0.350000	   -0.070000	    0.310000	   24.199219
    3.6067	 -0.001500	  0.024000	  1.009500	   -0.400000	   -0.210000	    0.240000	   24.144531
    3.6167	 -0.000500	  0.025500	  1.008500	   -0.230000	   -0.140000	    0.390000	   24.156250
    3.6267	 -0.001500	  0.025500	  1.008000	   -0.370000	   -0.200000	    0.300000	   24.148438
    3.6367	 -0.002000	  0.025000	  1.009000	   -0.450000	   -0.250000	    0.300000	   24.148438
    3.6467	  0.000000	  0.025500	  1.009500	   -0.350000	   -0.150000	    0.280000	   24.164063
    3.6567	 -0.001500	  0.026000	  1.006500	   -0.340000	   -0.140000	    0.080000	   24.175781
    3.6667	 -0.001500	  0.025500	  1.007500	   -0.360000	   -0.230000	    0.220000	   24.164063
    3.6767	  0.000000	  0.026000	  1.007000	   -0.400000	   -0.130000	    0.270000	   24.148438
    3.6867	 -0.001500	  0.026500	  1.008000	   -0.410000	   -0.080000	    0.210000	   24.144531
    3.6967	 -0.001500	  0.026000	  1.007000	   -0.390000	   -0.140000	    0.270000	   24.156250
    3.7067	 -0.001500	  0.025500	  1.008500	   -0.360000	   -0.150000	    0.310000	   24.148438
    3.7167	 -0.001500	  0.025000	  1.007500	   -0.340000	   -0.070000	    0.210000	   24.140625
    3.7267	 -0.001500	  0.025000	  1.007500	   -0.520000	   -0.160000	    0.340000	   24.132813
    3.7367	 -0.001500	  0.025000	  1.007500	   -0.380000	   -0.160000	    0.250000	   24.136719
    3.7467	 -0.000500	  0.024000	  1.007500	   -0.420000	   -0.150000	    0.300000	   24.140625
    3.7567	 -0.001000	  0.025000	  1.008500	   -0.320000	   -0.160000	    0.230000	   24.167969
    3.7667	 -0.002000	  0.025000	  1.007500	   -0.390000	   -0.240000	    0.250000	   24.152344
    3.7767	 -0.001000	  0.025000	  1.009000	   -0.180000	   -0.090000	    0.090000	   24.156250
    3.7867	 -0.001000	  0.025000	  1.007000	   -0.340000	   -0.150000	    0.210000	   24.152344
    3.7967	 -0.001500	  0.024000	  1.007500	   -0.290000	   -0.220000	    0.250000	   24.167969
    3.8067	 -0.002000	  0.025000	  1.007500	   -0.450000	   -0.150000	    0.330000	   24.164063
    3.8167	 -0.001000	  0.025500	  1.007000	   -0.480000	   -0.120000	    0.200000	   24.148438
    3.8267	 -0.001500	  0.025000	  1.008500	   -0.390000	   -0.230000	    0.300000	   24.148438
    3.8367	 -0.001000	  0.026000	  1.007000	   -0.280000	   -0.100000	    0.300000	   24.175781
    3.8467	 -0.001500	  0.025500	  1.008000	   -0.270000	   -0.030000	    0.330000	   24.164063
    3.8567	 -0.001500	  0.024500	  1.008500	   -0.340000	    0.030000	    0.180000	   24.144531
    3.8667	 -0.001500	  0.025000	  1.009000	   -0.400000	   -0.170000	    0.290000	   24.156250
    3.8767	 -0.002000	  0.025000	  1.007500	   -0.430000	   -0.090000	    0.220000	   24.164063
    3.8867	 -0.001500	  0.025000	  1.009000	   -0.370000	   -0.170000	    0.210000	   24.156250
    3.8967	 -0.001500	  0.025000	  1.007000	   -0.340000	   -0.170000	    0.270000	   24.156250
    3.9067	 -0.001500	  0.025500	  1.008000	   -0.390000	   -0.160000	    0.200000	   24.152344
    3.9168	  0.000000	  0.025000	  1.007000	   -0.320000	   -0.260000	    0.190000	   24.175781
    3.9267	 -0.002500	  0.024500	  1.008000	   -0.310000	   -0.180000	    0.310000	   24.164063
    3.9367	 -0.001000	  0.024000	  1.009000	   -0.390000	   -0.120000	    0.120000	   24.175781
    3.9467	 -0.000500	  0.025500	  1.008500	   -0.400000	   -0.050000	    0.130000	   24.148438
    3.9567	 -0.001000	  0.024500	  1.008000	   -0.340000	   -0.010000	    0.230000	   24.128906
    3.9667	 -0.001000	  0.025000	  1.008500	   -0.320000	   -0.110000	    0.260000	   24.125000
    3.9767	 -0.001000	  0.025000	  1.009000	   -0.370000	   -0.100000	    0.220000	   24.144531
    3.9867	 -0.001000	  0.025000	  1.008000	   -0.410000	   -0.350000	    0.230000	   24.144531
    3.9967	 -0.001000	  0.024500	  1.008500	   -0.320000	   -0.040000	    0.160000	   24.144531
    4.0067	 -0.001000	  0.023500	  1.007000	   -0.460000	   -0.150000	    0.230000	   24.136719
    4.0167	 -0.000500	  0.025000	  1.010500	   -0.410000	   -0.160000	    0.240000	   24.171875
    4.0267	 -0.001500	  0.025000	  1.006500	   -0.440000	   -0.120000	    0.350000	   24.179688
    4.0367	 -0.002000	  0.024500	  1.008000	   -0.430000	   -0.120000	    0.170000	   24.152344
    4.0467	  0.000000	  0.023000	  1.008500	   -0.370000	    0.050000	    0.280000	   24.164063
    4.0567	  0.000000	  0.025500	  1.008500	   -0.330000	   -0.090000	    0.130000	   24.156250
    4.0670	 -0.002000	  0.027000	  1.007000	   -0.380000	   -0.210000	    0.370000	   24.148438
    4.0767	 -0.000500	  0.024500	  1.008000	   -0.390000	   -0.070000	    0.220000	   24.175781
    4.0867	 -0.000500	  0.025500	  1.007500	   -0.260000	   -0.230000	    0.190000	   24.156250
    4.0967	 -0.001000	  0.025500	  1.007500	   -0.240000	   -0.060000	    0.320000	   24.148438
    4.1067	 -0.001000	  0.025500	  1.008500	   -0.420000	   -0.200000	    0.200000	   24.156250
    4.1168	  0.000500	  0.024000	  1.008500	   -0.430000	   -0.100000	    0.260000	   24.164063
    4.1267	 -0.002000	  0.025000	  1.007500	   -0.290000	   -0.070000	    0.190000	   24.171875
    4.1367	 -0.002500	  0.025000	  1.008000	   -0.300000	   -0.030000	    0.220000	   24.160156
    4.1467	 -0.001000	  0.024000	  1.009000	   -0.330000	   -0.100000	    0.300000	   24.156250
    4.1567	 -0.000500	  0.025500	  1.006500	   -0.340000	   -0.140000	    0.240000	   24.179688
    4.1667	 -0.002000	  0.025500	  1.007000	   -0.430000	   -0.240000	    0.310000	   24.179688
    4.1767	 -0.001000	  0.025000	  1.009500	   -0.330000	   -0.190000	    0.220000	   24.167969
    4.1867	  0.000500	  0.025000	  1.007000	   -0.470000	   -0.090000	    0.310000	   24.164063
    4.1967	 -0.002000	  0.025500	  1.008500	   -0.360000	   -0.120000	    0.210000	   24.164063
    4.2067	 -0.002000	  0.024500	  1.008000	   -0.330000	   -0.150000	    0.240000	   24.164063
    4.2168	  0.000000	  0.024000	  1.007000	   -0.440000	   -0.120000	    0.220000	   24.156250
    4.2267	 -0.001000	  0.024500	  1.008000	   -0.380000	   -0.190000	    0.280000	   24.144531
    4.2367	 -0.002500	  0.024500	  1.008500	   -0.310000	   -0.060000	    0.230000	   24.152344
    4.2467	 -0.000500	  0.026500	  1.007500	   -0.360000	   -0.110000	    0.300000	   24.144531
    4.2567	 -0.002000	  0.025000	  1.008000	   -0.360000	   -0.170000	    0.220000	   24.160156
    4.2667	 -0.001000	  0.025500	  1.008500	   -0.380000	   -0.070000	    0.140000	   24.128906
    4.2767	 -0.001500	  0.025500	  1.007500	   -0.370000	   -0.090000	    0.340000	   24.144531
    4.2867	 -0.001500	  0.025500	  1.008500	   -0.350000	   -0.120000	    0.220000	   24.171875
    4.2967	 -0.001500	  0.025000	  1.008000	   -0.490000	   -0.220000	    0.240000	   24.179688
    4.3067	 -0.002000	  0.024000	  1.007000	   -0.290000	   -0.110000	    0.190000	   24.152344
    4.3168	 -0.000500	  0.025000	  1.007500	   -0.500000	   -0.130000	    0.260000	   24.156250
    4.3267	 -0.002000	  0.025500	  1.007500	   -0.360000	   -0.240000	    0.290000	   24.167969
    4.3367	 -0.001500	  0.025500	  1.007500	   -0.440000	   -0.150000	    0.250000	   24.132813
    4.3467	 -0.001000	  0.025500	  1.007000	   -0.420000	   -0.140000	    0.240000	   24.167969
    4.3567	 -0.001500	  0.024500	  1.008000	   -0.490000	   -0.070000	    0.270000	   24.175781
    4.3667	 -0.002000	  0.026000	  1.006000	   -0.380000	   -0.060000	    0.350000	   24.175781
    4.3767	 -0.001000	  0.024500	  1.008500	   -0.380000	   -0.120000	    0.250000	   24.175781
    4.3867	 -0.001000	  0.025500	  1.006500	   -0.340000	   -0.220000	    0.240000	   24.140625
    4.3967	 -0.002000	  0.025000	  1.009500	   -0.460000	   -0.080000	    0.270000	   24.171875
    4.4067	 -0.001500	  0.025500	  1.007500	   -0.390000	   -0.090000	    0.270000	   24.152344
    4.4168	 -0.001500	  0.024000	  1.008500	   -0.500000	   -0.090000	    0.300000	   24.140625
    4.4267	 -0.001000	  0.025000	  1.008000	   -0.290000	   -0.270000	    0.170000	   24.167969
    4.4367	 -0.002500	  0.025500	  1.006500	   -0.390000	   -0.070000	    0.230000	   24.167969
    4.4467	 -0.002000	  0.025500	  1.010000	   -0.300000	   -0.110000	    0.180000	   24.152344
    4.4568	 -0.003000	  0.025500	  1.008000	   -0.550000	   -0.250000	    0.330000	   24.164063
    4.4667	 -0.001500	  0.026000	  1.008000	   -0.320000	   -0.130000	    0.300000	   24.179688
    4.4768	 -0.002500	  0.024000	  1.007500	   -0.290000	   -0.030000	    0.250000	   24.167969
    4.4867	 -0.001500	  0.026000	  1.008500	   -0.350000	   -0.130000	    0.180000	   24.164063
    4.4967	 -0.002500	  0.025000	  1.008500	   -0.420000	   -0.120000	    0.290000	   24.160156
    4.5067	 -0.001000	  0.025500	  1.006500	   -0.380000	   -0.160000	    0.240000	   24.171875
    4.5168	 -0.001000	  0.027000	  1.008500	   -0.340000	   -0.090000	    0.230000	   24.187500
    4.5267	 -0.001500	  0.024000	  1.007500	   -0.400000	   -0.050000	    0.280000	   24.164063
    4.5367	 -0.001500	  0.025000	  1.007500	   -0.320000	   -0.050000	    0.190000	   24.144531
    4.5468	 -0.001000	  0.025000	  1.008500	   -0.390000	   -0.130000	    0.290000	   24.148438
    4.5568	 -0.002000	  0.025500	  1.007000	   -0.300000	   -0.260000	    0.190000	   24.140625
    4.5668	 -0.003000	  0.025000	  1.007500	   -0.370000	   -0.090000	    0.190000	   24.160156
    4.5768	 -0.001500	  0.026000	  1.008000	   -0.330000	   -0.120000	    0.210000	   24.183594
    4.5868	 -0.001000	  0.024500	  1.009000	   -0.410000	   -0.130000	    0.220000	   24.171875
    4.5968	 -0.002000	  0.025000	  1.008000	   -0.410000	   -0.130000	    0.240000	   24.164063
    4.6068	 -0.001500	  0.025500	  1.008000	   -0.360000	   -0.090000	    0.180000	   24.152344
    4.6168	 -0.001000	  0.025500	  1.008000	   -0.440000	   -0.210000	    0.290000	   24.136719
    4.6268	 -0.001500	  0.025500	  1.007500	   -0.300000	   -0.120000	    0.310000	   24.156250
    4.6368	 -0.001500	  0.024000	  1.009500	   -0.470000	   -0.100000	    0.230000	   24.160156
    4.6468	 -0.000500	  0.025000	  1.009000	   -0.460000	   -0.160000	    0.290000	   24.179688
    4.6568	 -0.000500	  0.024000	  1.008000	   -0.320000	   -0.180000	    0.270000	   24.164063
    4.6668	 -0.001500	  0.026000	  1.008500	   -0.400000	   -0.260000	    0.140000	   24.152344
    4.6768	 -0.002000	  0.025000	  1.009000	   -0.520000	   -0.070000	    0.190000	   24.148438
    4.6868	 -0.000500	  0.025000	  1.008500	   -0.340000	   -0.100000	    0.190000	   24.167969
    4.6968	 -0.002000	  0.024500	  1.008000	   -0.290000	   -0.130000	    0.180000	   24.183594
    4.7068	 -0.001000	  0.024500	  1.008000	   -0.280000	   -0.100000	    0.280000	   24.191406
    4.7168	 -0.001000	  0.025000	  1.007000	   -0.360000	   -0.050000	    0.220000	   24.171875
    4.7268	 -0.000500	  0.025500	  1.007500	   -0.360000	   -0.100000	    0.300000	   24.187500
    4.7368	 -0.001500	  0.025500	  1.009000	   -0.370000	   -0.200000	    0.230000	   24.179688
    4.7468	 -0.001500	  0.025000	  1.008000	   -0.330000	   -0.140000	    0.340000	   24.171875
    4.7568	 -0.001500	  0.026000	  1.006500	   -0.400000	   -0.190000	    0.220000	   24.152344
    4.7668	 -0.001500	  0.025000	  1.009500	   -0.330000	   -0.320000	    0.260000	   24.179688
    4.7768	 -0.001000	  0.024500	  1.007500	   -0.210000	   -0.020000	    0.170000	   24.187500
    4.7868	 -0.000500	  0.024500	  1.007500	   -0.370000	   -0.020000	    0.330000	   24.171875
    4.7968	 -0.001500	  0.025000	  1.007000	   -0.300000	   -0.220000	    0.180000	   24.179688
    4.8068	 -0.001500	  0.025500	  1.008000	   -0.460000	   -0.300000	    0.200000	   24.167969
    4.8168	  0.000000	  0.024500	  1.009000	   -0.340000	   -0.130000	    0.230000	   24.160156
    4.8268	 -0.002000	  0.025000	  1.008500	   -0.350000	   -0.200000	    0.280000	   24.164063
    4.8368	 -0.001500	  0.024500	  1.007000	   -0.470000	   -0.110000	    0.220000	   24.164063
    4.8468	  0.000000	  0.024500	  1.007500	   -0.330000	   -0.170000	    0.280000	   24.148438
    4.8568	 -0.000500	  0.024500	  1.008500	   -0.330000	   -0.150000	    0.210000	   24.164063
    4.8668	 -0.001000	  0.025500	  1.007000	   -0.400000	   -0.310000	    0.250000	   24.175781
    4.8768	  0.000000	  0.025000	  1.008000	   -0.420000	   -0.020000	    0.250000	   24.160156
    4.8868	 -0.001000	  0.026000	  1.009500	   -0.390000	   -0.190000	    0.210000	   24.144531
    4.8968	 -0.001500	  0.025500	  1.006500	   -0.400000	   -0.220000	    0.250000	   24.152344
    4.9068	 -0.001500	  0.024500	  1.008000	   -0.310000	   -0.110000	    0.150000	   24.171875
    4.9168	  0.000000	  0.025500	  1.007500	   -0.370000	   -0.130000	    0.280000	   24.179688
    4.9268	 -0.001000	  0.025500	  1.008000	   -0.350000	   -0.070000	    0.240000	   24.203125
    4.9368	 -0.002500	  0.025000	  1.009500	   -0.380000	   -0.090000	    0.220000	   24.171875
    4.9468	 -0.000500	  0.026000	  1.007500	   -0.350000	   -0.170000	    0.340000	   24.160156
    4.9568	 -0.000500	  0.025000	  1.006500	   -0.400000	   -0.150000	    0.250000	   24.164063
    4.9668	 -0.001000	  0.025500	  1.007500	   -0.450000	   -0.270000	    0.180000	   24.195313
    4.9768	 -0.001000	  0.024500	  1.008500	   -0.400000	   -0.110000	    0.300000	   24.171875
    4.9868	 -0.001000	  0.025500	  1.008000	   -0.460000	   -0.030000	    0.290000	   24.148438
    4.9968	 -0.001000	  0.025000	  1.009000	   -0.370000	   -0.160000	    0.210000	   24.144531
    5.0068	 -0.000500	  0.025500	  1.007500	   -0.470000	   -0.160000	    0.250000	   24.140625
    5.0168	  0.000000	  0.025500	  1.008000	   -0.380000	   -0.100000	    0.320000	   24.160156
    5.0268	 -0.001000	  0.025000	  1.008500	   -0.330000	   -0.010000	    0.220000	   24.175781
    5.0368	 -0.000500	  0.025500	  1.006000	   -0.360000	   -0.080000	    0.260000	   24.175781
    5.0468	 -0.002000	  0.025000	  1.008500	   -0.470000	   -0.150000	    0.210000	   24.156250
    5.0568	 -0.002000	  0.025000	  1.008000	   -0.330000	   -0.110000	    0.240000	   24.156250
    5.0671	 -0.001000	  0.025000	  1.009000	   -0.340000	   -0.150000	    0.250000	   24.164063
    5.0768	 -0.000500	  0.023500	  1.006500	   -0.440000	   -0.220000	    0.350000	   24.160156
    5.0868	 -0.002000	  0.025000	  1.008500	   -0.400000	   -0.100000	    0.270000	   24.179688
    5.0968	 -0.001500	  0.025500	  1.007000	   -0.460000	   -0.190000	    0.260000	   24.171875
    5.1068	 -0.002000	  0.024500	  1.006000	   -0.280000	   -0.230000	    0.210000	   24.144531
    5.1168	 -0.000500	  0.023500	  1.008500	   -0.320000	   -0.120000	    0.270000	   24.148438
    5.1268	 -0.002000	  0.025500	  1.007000	   -0.470000	   -0.110000	    0.140000	   24.175781
    5.1368	 -0.002500	  0.025500	  1.007500	   -0.300000	    0.000000	    0.160000	   24.179688
    5.1468	 -0.002000	  0.025500	  1.008000	   -0.310000	   -0.100000	    0.210000	   24.187500
    5.1568	 -0.002000	  0.025000	  1.007500	   -0.500000	   -0.090000	    0.250000	   24.148438
    5.1668	 -0.002000	  0.025500	  1.009000	   -0.450000	   -0.200000	    0.280000	   24.171875
    5.1768	  0.000000	  0.025000	  1.007000	   -0.440000	   -0.140000	    0.350000	   24.167969
    5.1868	 -0.001000	  0.025500	  1.009000	   -0.250000	   -0.080000	    0.200000	   24.175781
    5.1968	 -0.002000	  0.026000	  1.006500	   -0.320000	   -0.200000	    0.280000	   24.179688
    5.2068	 -0.000500	  0.025000	  1.007000	   -0.300000	   -0.160000	    0.210000	   24.156250
    5.2168	 -0.000500	  0.025000	  1.008500	   -0.370000	   -0.220000	    0.200000	   24.175781
    5.2268	 -0.001000	  0.026000	  1.007000	   -0.320000	   -0.190000	    0.210000	   24.195313
    5.2368	 -0.002500	  0.025000	  1.008500	   -0.290000	   -0.120000	    0.170000	   24.164063
    5.2468	 -0.001000	  0.026000	  1.007500	   -0.370000	   -0.050000	    0.280000	   24.148438
    5.2568	 -0.001500	  0.025000	  1.007500	   -0.370000	   -0.110000	    0.210000	   24.171875
    5.2668	 -0.002000	  0.025500	  1.006500	   -0.270000	   -0.230000	    0.240000	   24.203125
    5.2768	 -0.001500	  0.023500	  1.010000	   -0.330000	   -0.200000	    0.190000	   24.191406
    5.2868	 -0.001000	  0.025500	  1.008500	   -0.320000	   -0.190000	    0.180000	   24.183594
    5.2968	 -0.001500	  0.024500	  1.008500	   -0.370000	    0.050000	    0.270000	   24.175781
    5.3068	 -0.002500	  0.024500	  1.008500	   -0.360000	   -0.070000	    0.250000	   24.179688
    5.3168	 -0.002000	  0.025000	  1.008500	   -0.330000	   -0.150000	    0.180000	   24.175781
    5.3268	 -0.001500	  0.024500	  1.007500	   -0.250000	   -0.030000	    0.320000	   24.171875
    5.3368	 -0.002000	  0.024500	  1.008500	   -0.470000	   -0.220000	    0.210000	   24.171875
    5.3468	 -0.001000	  0.025500	  1.007500	   -0.340000	   -0.120000	    0.290000	   24.164063
    5.3568	 -0.000500	  0.024000	  1.008500	   -0.370000	   -0.070000	    0.160000	   24.156250
    5.3668	 -0.001500	  0.024000	  1.008000	   -0.310000	   -0.160000	    0.250000	   24.136719
    5.3768	 -0.000500	  0.025500	  1.009000	   -0.200000	   -0.160000	    0.170000	   24.156250
    5.3868	 -0.001500	  0.025000	  1.007000	   -0.350000	   -0.160000	    0.200000	   24.171875
    5.3968	 -0.001000	  0.026500	  1.007000	   -0.470000	   -0.150000	    0.290000	   24.167969
    5.4068	 -0.001000	  0.025500	  1.006000	   -0.390000	   -0.200000	    0.290000	   24.148438
    5.4168	 -0.001500	  0.024500	  1.006500	   -0.440000	   -0.110000	    0.230000	   24.164063
    5.4268	 -0.001000	  0.025500	  1.007500	   -0.340000	   -0.270000	    0.220000	   24.179688
    5.4368	 -0.003000	  0.025000	  1.007500	   -0.440000	   -0.110000	    0.330000	   24.191406
    5.4468	 -0.000500	  0.025000	  1.009500	   -0.350000	   -0.140000	    0.270000	   24.156250
    5.4568	 -0.001500	  0.024500	  1.008000	   -0.470000	   -0.100000	    0.270000	   24.179688
    5.4668	 -0.002000	  0.025500	  1.007000	   -0.400000	   -0.100000	    0.100000	   24.164063
    5.4768	 -0.000500	  0.024500	  1.007500	   -0.540000	   -0.180000	    0.350000	   24.148438
    5.4868	 -0.001000	  0.025000	  1.006500	   -0.370000	   -0.110000	    0.200000	   24.167969
    5.4968	 -0.001500	  0.025000	  1.008000	   -0.410000	   -0.180000	    0.270000	   24.164063
    5.5068	 -0.003000	  0.026500	  1.007500	   -0.330000	   -0.130000	    0.240000	   24.160156
    5.5168	 -0.000500	  0.024000	  1.008000	   -0.290000	   -0.280000	    0.140000	   24.175781
    5.5268	 -0.001000	  0.025500	  1.008500	   -0.410000	   -0.200000	    0.240000	   24.167969
    5.5368	 -0.001500	  0.025000	  1.007500	   -0.410000	   -0.190000	    0.280000	   24.171875
    5.5468	 -0.001500	  0.025500	  1.008000	   -0.360000	   -0.210000	    0.240000	   24.167969
    5.5568	 -0.001000	  0.025000	  1.009000	   -0.290000	   -0.230000	    0.180000	   24.152344
    5.5668	 -0.002000	  0.025000	  1.007000	   -0.310000	   -0.130000	    0.270000	   24.171875
    5.5768	 -0.001500	  0.025000	  1.009000	   -0.350000	   -0.130000	    0.350000	   24.179688
    5.5868	 -0.001500	  0.025000	  1.006000	   -0.350000	   -0.110000	    0.260000	   24.179688
    5.5968	 -0.002000	  0.025500	  1.007000	   -0.360000	   -0.200000	    0.220000	   24.187500
    5.6068	 -0.001500	  0.025000	  1.007500	   -0.360000	   -0.100000	    0.110000	   24.183594
    5.6169	 -0.001000	  0.024500	  1.007500	   -0.380000	   -0.140000	    0.160000	   24.179688
    5.6268	 -0.002000	  0.025000	  1.008500	   -0.440000	   -0.300000	    0.200000	   24.167969
    5.6368	 -0.002000	  0.024500	  1.008000	   -0.290000	   -0.220000	    0.260000	   24.207031
    5.6468	 -0.001000	  0.024000	  1.008500	   -0.390000	   -0.030000	    0.280000	   24.207031
    5.6568	 -0.000500	  0.025500	  1.008000	   -0.410000	   -0.210000	    0.320000	   24.187500
    5.6668	 -0.002000	  0.024500	  1.007500	   -0.370000	   -0.170000	    0.320000	   24.203125
    5.6768	 -0.001000	  0.025000	  1.008500	   -0.360000	   -0.110000	    0.170000	   24.183594
    5.6868	  0.000000	  0.025000	  1.007500	   -0.490000	   -0.280000	    0.260000	   24.207031
    5.6968	 -0.002500	  0.025000	  1.006500	   -0.400000	   -0.230000	    0.190000	   24.214844
    5.7068	 -0.001000	  0.026000	  1.009500	   -0.500000	   -0.150000	    0.230000	   24.187500
    5.7169	 -0.000500	  0.024500	  1.008000	   -0.330000	   -0.060000	    0.250000	   24.183594
    5.7268	 -0.001500	  0.025500	  1.009000	   -0.280000	   -0.150000	    0.360000	   24.183594
    5.7368	 -0.002000	  0.025000	  1.008500	   -0.290000	   -0.190000	    0.260000	   24.187500
    5.7468	 -0.001000	  0.025500	  1.009500	   -0.340000	   -0.190000	    0.250000	   24.187500
    5.7568	 -0.000500	  0.025000	  1.008000	   -0.430000	   -0.080000	    0.330000	   24.187500
    5.7668	 -0.001500	  0.024500	  1.006500	   -0.400000	   -0.170000	    0.320000	   24.199219
    5.7768	 -0.001000	  0.025500	  1.007000	   -0.350000	   -0.110000	    0.260000	   24.179688
    5.7868	 -0.001000	  0.025000	  1.008000	   -0.270000	   -0.140000	    0.240000	   24.160156
    5.7968	 -0.001000	  0.025000	  1.008000	   -0.360000	   -0.070000	    0.280000	   24.164063
    5.8068	 -0.002000	  0.025000	  1.008000	   -0.410000	   -0.220000	    0.200000	   24.195313
    5.8169	  0.000000	  0.024500	  1.009000	   -0.470000	   -0.140000	    0.270000	   24.167969
    5.8268	 -0.001000	  0.025000	  1.006500	   -0.290000	   -0.220000	    0.300000	   24.164063
    5.8368	 -0.000500	  0.026000	  1.009000	   -0.380000	   -0.040000	    0.070000	   24.164063
    5.8468	 -0.000500	  0.024500	  1.007000	   -0.370000	   -0.210000	    0.180000	   24.167969
    5.8568	 -0.000500	  0.025500	  1.008000	   -0.420000	   -0.130000	    0.260000	   24.203125
    5.8668	 -0.001500	  0.025500	  1.007500	   -0.390000	   -0.160000	    0.240000	   24.183594
    5.8768	 -0.000500	  0.024500	  1.007500	   -0.350000	   -0.060000	    0.330000	   24.183594
    5.8868	 -0.000500	  0.025000	  1.008500	   -0.250000	   -0.120000	    0.300000	   24.195313
    5.8968	 -0.001500	  0.024000	  1.009500	   -0.380000	   -0.130000	    0.260000	   24.183594
    5.9068	 -0.001000	  0.024000	  1.008000	   -0.360000	   -0.100000	    0.190000	   24.179688
    5.9169	 -0.000500	  0.026500	  1.008000	   -0.410000	   -0.070000	    0.150000	   24.164063
    5.9268	 -0.001500	  0.024000	  1.008000	   -0.450000	   -0.210000	    0.250000	   24.164063
    5.9368	  0.000000	  0.025000	  1.007500	   -0.470000	   -0.160000	    0.360000	   24.195313
    5.9468	  0.000000	  0.027000	  1.008500	   -0.410000	    0.010000	    0.200000	   24.203125
    5.9568	 -0.000500	  0.025500	  1.007500	   -0.320000	   -0.210000	    0.290000	   24.195313
    5.9668	 -0.001000	  0.025500	  1.009000	   -0.350000	   -0.160000	    0.190000	   24.187500
    5.9768	  0.000000	  0.026500	  1.007500	   -0.450000	   -0.350000	    0.280000	   24.210938
    5.9868	 -0.000500	  0.026000	  1.007500	   -0.380000	   -0.200000	    0.200000	   24.199219
    5.9968	 -0.000500	  0.025000	  1.007000	   -0.340000	   -0.040000	    0.270000	   24.175781
    6.0068	 -0.001000	  0.025500	  1.009000	   -0.330000	   -0.180000	    0.280000	   24.203125
    6.0168	 -0.001500	  0.024500	  1.007000	   -0.330000	   -0.180000	    0.250000	   24.222656
    6.0268	 -0.002000	  0.024500	  1.007500	   -0.410000	   -0.230000	    0.160000	   24.207031
    6.0368	 -0.002500	  0.024500	  1.008000	   -0.380000	    0.050000	    0.240000	   24.199219
    6.0468	 -0.001500	  0.024000	  1.007000	   -0.420000	   -0.090000	    0.360000	   24.199219
    6.0568	 -0.002000	  0.025000	  1.007500	   -0.320000	   -0.190000	    0.110000	   24.175781
    6.0672	 -0.002000	  0.025000	  1.008500	   -0.440000	   -0.130000	    0.190000	   24.183594
    6.0768	 -0.000500	  0.024500	  1.007500	   -0.350000	   -0.120000	    0.250000	   24.218750
    6.0868	 -0.002000	  0.024500	  1.008000	   -0.420000	   -0.070000	    0.250000	   24.218750
    6.0968	 -0.001500	  0.025500	  1.007500	   -0.370000	   -0.180000	    0.270000	   24.207031
    6.1068	 -0.001000	  0.024500	  1.008000	   -0.410000	   -0.100000	    0.120000	   24.199219
    6.1168	 -0.001500	  0.025500	  1.008500	   -0.440000	   -0.150000	    0.260000	   24.179688
    6.1269	 -0.001000	  0.025500	  1.007500	   -0.290000	   -0.080000	    0.300000	   24.171875
    6.1368	  0.000000	  0.025500	  1.008500	   -0.290000	   -0.160000	    0.400000	   24.187500
    6.1468	 -0.001500	  0.024500	  1.008000	   -0.390000	   -0.180000	    0.260000	   24.195313
    6.1568	 -0.001500	  0.025500	  1.007000	   -0.370000	   -0.130000	    0.200000	   24.203125
    6.1668	 -0.002500	  0.024500	  1.008000	   -0.280000	    0.010000	    0.250000	   24.179688
    6.1768	 -0.002000	  0.025000	  1.008500	   -0.370000	   -0.120000	    0.240000	   24.171875
    6.1868	 -0.001500	  0.025500	  1.008000	   -0.380000	   -0.130000	    0.270000	   24.148438
    6.1968	 -0.002000	  0.025500	  1.008500	   -0.470000	   -0.090000	    0.190000	   24.156250
    6.2068	 -0.002500	  0.025000	  1.008000	   -0.430000	   -0.140000	    0.310000	   24.175781
    6.2169	 -0.001500	  0.025000	  1.007500	   -0.290000	   -0.140000	    0.310000	   24.203125
    6.2268	 -0.002500	  0.024500	  1.006000	   -0.330000	   -0.120000	    0.310000	   24.195313
    6.2369	 -0.002500	  0.024000	  1.008000	   -0.470000	   -0.290000	    0.250000	   24.199219
    6.2469	  0.000000	  0.025500	  1.007000	   -0.430000	   -0.210000	    0.230000	   24.187500
    6.2569	 -0.000500	  0.025000	  1.008000	   -0.330000	   -0.190000	    0.260000	   24.199219
    6.2669	 -0.002500	  0.025500	  1.009000	   -0.460000	   -0.060000	    0.200000	   24.214844
    6.2769	 -0.000500	  0.024500	  1.008500	   -0.340000	   -0.110000	    0.330000	   24.230469
    6.2869	 -0.000500	  0.024000	  1.007000	   -0.380000	   -0.190000	    0.240000	   24.199219
    6.2969	 -0.003000	  0.025500	  1.009000	   -0.420000	   -0.140000	    0.230000	   24.167969
    6.3069	 -0.002000	  0.025000	  1.005500	   -0.400000	   -0.230000	    0.270000	   24.195313
    6.3169	  0.000000	  0.025500	  1.009000	   -0.310000	   -0.130000	    0.230000	   24.207031
    6.3269	 -0.001500	  0.025000	  1.007000	   -0.420000	   -0.160000	    0.210000	   24.183594
    6.3369	 -0.002000	  0.025000	  1.007500	   -0.390000	   -0.260000	    0.280000	   24.183594
    6.3469	 -0.001000	  0.025500	  1.008000	   -0.370000	   -0.210000	    0.190000	   24.214844
    6.3569	 -0.002000	  0.024500	  1.007500	   -0.310000	   -0.140000	    0.200000	   24.195313
    6.3669	 -0.001500	  0.025000	  1.007000	   -0.310000	   -0.090000	    0.160000	   24.191406
    6.3769	 -0.002000	  0.025000	  1.009500	   -0.320000	   -0.200000	    0.320000	   24.191406
    6.3869	 -0.001000	  0.025000	  1.007000	   -0.260000	   -0.070000	    0.300000	   24.195313
    6.3969	 -0.003000	  0.025000	  1.006500	   -0.370000	   -0.200000	    0.150000	   24.199219
    6.4069	 -0.001500	  0.025500	  1.008000	   -0.390000	   -0.080000	    0.300000	   24.207031
    6.4169	 -0.001500	  0.024500	  1.008000	   -0.410000	   -0.140000	    0.230000	   24.187500
    6.4269	 -0.001500	  0.025500	  1.008500	   -0.390000	   -0.220000	    0.310000	   24.203125
    6.4369	 -0.001000	  0.025000	  1.007000	   -0.370000	   -0.130000	    0.290000	   24.187500
    6.4469	 -0.000500	  0.025500	  1.009000	   -0.380000	   -0.260000	    0.250000	   24.210938
    6.4569	 -0.001000	  0.024500	  1.008000	   -0.360000	   -0.170000	    0.130000	   24.195313
    6.4669	 -0.000500	  0.025500	  1.007000	   -0.280000	   -0.090000	    0.150000	   24.199219
    6.4769	  0.000000	  0.025000	  1.008500	   -0.290000	   -0.230000	    0.210000	   24.203125
    6.4869	 -0.001000	  0.025500	  1.006000	   -0.250000	   -0.080000	    0.270000	   24.207031
    6.4969	 -0.002000	  0.025000	  1.007000	   -0.420000	   -0.070000	    0.200000	   24.199219
    6.5069	 -0.001000	  0.025000	  1.008500	   -0.370000	   -0.160000	    0.140000	   24.207031
    6.5169	 -0.001000	  0.024500	  1.006000	   -0.340000	   -0.140000	    0.200000	   24.199219
    6.5269	 -0.002000	  0.025000	  1.008000	   -0.370000	   -0.050000	    0.250000	   24.187500
    6.5369	 -0.001500	  0.025500	  1.009500	   -0.400000	   -0.090000	    0.330000	   24.191406
    6.5469	 -0.001500	  0.025500	  1.006000	   -0.510000	   -0.080000	    0.310000	   24.210938
    6.5569	 -0.002500	  0.024500	  1.009000	   -0.390000	   -0.130000	    0.200000	   24.210938
    6.5669	 -0.002000	  0.024000	  1.009500	   -0.370000	   -0.170000	    0.290000	   24.214844
    6.5769	 -0.001000	  0.026000	  1.006000	   -0.410000	   -0.210000	    0.290000	   24.210938
    6.5869	 -0.001000	  0.024500	  1.008000	   -0.420000	   -0.040000	    0.390000	   24.199219
    6.5969	 -0.001500	  0.025500	  1.006500	   -0.420000	   -0.280000	    0.290000	   24.191406
    6.6069	 -0.001500	  0.027000	  1.007500	   -0.310000	    0.030000	    0.210000	   24.195313
    6.6169	 -0.001500	  0.025000	  1.009000	   -0.380000	   -0.170000	    0.200000	   24.207031
    6.6269	 -0.001500	  0.025500	  1.007500	   -0.390000	   -0.110000	    0.360000	   24.187500
    6.6369	 -0.001000	  0.024500	  1.008000	   -0.380000	   -0.050000	    0.220000	   24.203125
    6.6469	 -0.000500	  0.025500	  1.008000	   -0.350000	   -0.060000	    0.250000	   24.210938
    6.6569	 -0.001000	  0.025000	  1.007500	   -0.340000	   -0.080000	    0.240000	   24.203125
    6.6669	 -0.002500	  0.025500	  1.007500	   -0.400000	   -0.220000	    0.340000	   24.199219
    6.6769	 -0.000500	  0.025500	  1.008500	   -0.370000	   -0.100000	    0.320000	   24.207031
    6.6869	  0.000000	  0.025000	  1.008000	   -0.360000	   -0.110000	    0.230000	   24.218750
    6.6969	 -0.001500	  0.026000	  1.008500	   -0.360000	   -0.100000	    0.240000	   24.210938
    6.7069	 -0.002000	  0.025500	  1.008500	   -0.290000	   -0.130000	    0.280000	   24.207031
    6.7169	  0.000000	  0.025500	  1.007500	   -0.380000	   -0.100000	    0.160000	   24.179688
    6.7269	 -0.001000	  0.025000	  1.008000	   -0.340000	   -0.250000	    0.220000	   24.195313
    6.7369	 -0.002000	  0.025000	  1.007000	   -0.370000	   -0.150000	    0.180000	   24.218750
    6.7469	 -0.001000	  0.025000	  1.007000	   -0.410000	   -0.170000	    0.270000	   24.210938
    6.7569	 -0.000500	  0.026000	  1.009000	   -0.470000	   -0.160000	    0.310000	   24.164063
    6.7669	 -0.002500	  0.024500	  1.008000	   -0.380000	   -0.100000	    0.280000	   24.187500
    6.7769	 -0.001000	  0.026500	  1.007000	   -0.280000	   -0.020000	    0.240000	   24.187500
    6.7869	 -0.001000	  0.025000	  1.007000	   -0.380000	   -0.150000	    0.240000	   24.195313
    6.7969	 -0.001000	  0.026000	  1.007500	   -0.370000	   -0.170000	    0.220000	   24.199219
    6.8069	 -0.001000	  0.026000	  1.007500	   -0.370000	   -0.170000	    0.200000	   24.187500
    6.8169	 -0.000500	  0.026000	  1.010000	   -0.330000	   -0.180000	    0.300000	   24.210938
    6.8269	 -0.002000	  0.024500	  1.006000	   -0.380000	   -0.220000	    0.240000	   24.214844
    6.8369	 -0.000500	  0.025000	  1.009000	   -0.350000	   -0.150000	    0.300000	   24.191406
    6.8469	 -0.001000	  0.024500	  1.010500	   -0.400000	   -0.070000	    0.230000	   24.183594
    6.8569	 -0.001500	  0.025500	  1.006500	   -0.350000	   -0.120000	    0.200000	   24.203125
    6.8669	 -0.003500	  0.025000	  1.008500	   -0.350000	   -0.140000	    0.310000	   24.210938
    6.8769	 -0.001000	  0.025500	  1.009000	   -0.360000	   -0.050000	    0.330000	   24.187500
    6.8869	 -0.001000	  0.024000	  1.007500	   -0.230000	   -0.070000	    0.290000	   24.207031
    6.8969	 -0.002000	  0.024500	  1.009000	   -0.310000	   -0.090000	    0.280000	   24.222656
    6.9069	 -0.001000	  0.025000	  1.007500	   -0.410000	   -0.070000	    0.220000	   24.203125
    6.9169	 -0.000500	  0.025000	  1.006500	   -0.460000	   -0.090000	    0.230000	   24.183594
    6.9269	 -0.002000	  0.025500	  1.007000	   -0.280000	   -0.050000	    0.170000	   24.191406
    6.9369	 -0.002500	  0.024500	  1.008500	   -0.450000	   -0.280000	    0.350000	   24.191406
    6.9469	 -0.000500	  0.025500	  1.007000	   -0.390000	   -0.010000	    0.260000	   24.195313
    6.9569	 -0.001500	  0.025500	  1.010000	   -0.330000	   -0.090000	    0.160000	   24.191406
    6.9669	 -0.001500	  0.025000	  1.008000	   -0.310000	   -0.120000	    0.260000	   24.195313
    6.9769	 -0.001000	  0.025500	  1.007500	   -0.150000	   -0.020000	    0.160000	   24.195313
    6.9869	  0.000500	  0.024500	  1.008500	   -0.300000	   -0.140000	    0.200000	   24.179688
    6.9969	 -0.002000	  0.025000	  1.008000	   -0.370000	   -0.160000	    0.180000	   24.199219
    7.0069	 -0.001500	  0.025000	  1.008500	   -0.330000	   -0.220000	    0.350000	   24.195313
    7.0169	  0.000500	  0.024500	  1.008500	   -0.360000	   -0.160000	    0.240000	   24.214844
    7.0269	 -0.001500	  0.026000	  1.006500	   -0.370000	   -0.230000	    0.210000	   24.210938
    7.0369	 -0.002000	  0.025000	  1.009000	   -0.320000	   -0.070000	    0.230000	   24.195313
    7.0469	 -0.001000	  0.025500	  1.009000	   -0.400000	   -0.170000	    0.220000	   24.203125
    7.0569	 -0.002500	  0.026000	  1.006000	   -0.360000	   -0.340000	    0.290000	   24.207031
    7.0669	 -0.001500	  0.024500	  1.009000	   -0.390000	   -0.060000	    0.190000	   24.191406
    7.0772	 -0.001000	  0.026500	  1.008500	   -0.520000	   -0.060000	    0.300000	   24.203125
    7.0869	 -0.001500	  0.025000	  1.007500	   -0.320000	    0.010000	    0.240000	   24.199219
    7.0969	 -0.002000	  0.024000	  1.008000	   -0.390000	   -0.020000	    0.190000	   24.203125
    7.1069	 -0.001000	  0.026500	  1.008000	   -0.400000	   -0.070000	    0.310000	   24.210938
    7.1169	 -0.001000	  0.025000	  1.007500	   -0.240000	    0.000000	    0.270000	   24.226563
    7.1269	 -0.001500	  0.026000	  1.007000	   -0.480000	   -0.260000	    0.390000	   24.210938
    7.1369	 -0.001500	  0.025000	  1.009000	   -0.420000	   -0.240000	    0.260000	   24.218750
    7.1469	 -0.001500	  0.024500	  1.008000	   -0.510000	   -0.280000	    0.280000	   24.210938
    7.1569	 -0.001000	  0.026500	  1.007000	   -0.370000	   -0.110000	    0.280000	   24.199219
    7.1669	 -0.000500	  0.027000	  1.009500	   -0.510000	   -0.170000	    0.230000	   24.195313
    7.1769	  0.000500	  0.026500	  1.008500	   -0.410000	   -0.230000	    0.330000	   24.195313
    7.1869	 -0.001500	  0.025000	  1.006000	   -0.410000	   -0.120000	    0.260000	   24.179688
    7.1969	 -0.002000	  0.026000	  1.008000	   -0.340000	   -0.190000	    0.270000	   24.195313
    7.2069	 -0.001000	  0.024000	  1.006500	   -0.320000	   -0.040000	    0.220000	   24.195313
    7.2169	 -0.001000	  0.025500	  1.007000	   -0.340000	   -0.220000	    0.290000	   24.203125
    7.2269	 -0.002000	  0.024500	  1.008500	   -0.330000	   -0.110000	    0.180000	   24.214844
    7.2369	 -0.001000	  0.025500	  1.007500	   -0.430000	   -0.210000	    0.280000	   24.207031
    7.2469	 -0.001000	  0.025500	  1.008500	   -0.460000	   -0.070000	    0.310000	   24.210938
    7.2569	 -0.002500	  0.024000	  1.007000	   -0.490000	   -0.060000	    0.330000	   24.210938
    7.2669	 -0.001000	  0.025500	  1.008000	   -0.350000	   -0.140000	    0.260000	   24.187500
    7.2769	 -0.001000	  0.025500	  1.008500	   -0.350000	   -0.210000	    0.210000	   24.210938
    7.2869	 -0.002500	  0.025000	  1.007500	   -0.280000	   -0.090000	    0.350000	   24.214844
    7.2969	 -0.000500	  0.027000	  1.008000	   -0.350000	   -0.050000	    0.180000	   24.214844
    7.3069	 -0.001500	  0.025000	  1.008500	   -0.420000	   -0.090000	    0.400000	   24.222656
    7.3170	 -0.001500	  0.025000	  1.006500	   -0.340000	   -0.140000	    0.290000	   24.195313
    7.3269	 -0.001000	  0.024500	  1.008500	   -0.380000	    0.020000	    0.260000	   24.195313
    7.3369	 -0.001500	  0.025000	  1.007000	   -0.310000	   -0.110000	    0.170000	   24.191406
    7.3469	 -0.002500	  0.024500	  1.006500	   -0.360000	   -0.200000	    0.240000	   24.191406
    7.3569	 -0.002000	  0.023500	  1.009500	   -0.310000	   -0.240000	    0.200000	   24.195313
    7.3669	 -0.001500	  0.024500	  1.007000	   -0.340000	   -0.110000	    0.270000	   24.179688
    7.3769	 -0.001000	  0.025500	  1.009000	   -0.280000	   -0.040000	    0.170000	   24.199219
    7.3869	 -0.003000	  0.024500	  1.008000	   -0.410000	   -0.150000	    0.340000	   24.187500
    7.3969	 -0.001500	  0.024000	  1.007000	   -0.420000	   -0.070000	    0.250000	   24.199219
    7.4069	 -0.001000	  0.026000	  1.008000	   -0.430000	   -0.180000	    0.300000	   24.183594
    7.4170	 -0.000500	  0.026500	  1.010000	   -0.370000	   -0.170000	    0.180000	   24.199219
    7.4269	 -0.002500	  0.025000	  1.006500	   -0.300000	   -0.190000	    0.290000	   24.203125
    7.4369	 -0.001500	  0.026000	  1.008500	   -0.400000	   -0.160000	    0.260000	   24.195313
    7.4469	 -0.001500	  0.025000	  1.008500	   -0.480000	   -0.140000	    0.200000	   24.214844
    7.4569	 -0.002500	  0.026000	  1.005500	   -0.310000	   -0.140000	    0.260000	   24.234375
    7.4669	 -0.001500	  0.025500	  1.007500	   -0.370000	   -0.010000	    0.180000	   24.234375
    7.4769	 -0.002000	  0.025500	  1.009500	   -0.420000	    0.040000	    0.170000	   24.195313
    7.4869	 -0.001500	  0.025500	  1.005500	   -0.330000	   -0.190000	    0.240000	   24.167969
    7.4969	 -0.002000	  0.024500	  1.009000	   -0.320000	   -0.210000	    0.330000	   24.203125
    7.5069	 -0.002000	  0.025000	  1.009500	   -0.280000	    0.080000	    0.200000	   24.199219
    7.5170	 -0.001500	  0.024500	  1.006000	   -0.360000	   -0.240000	    0.310000	   24.195313
    7.5269	 -0.003000	  0.025000	  1.007500	   -0.260000	   -0.160000	    0.290000	   24.222656
    7.5369	 -0.001000	  0.024500	  1.009500	   -0.400000	   -0.140000	    0.310000	   24.230469
    7.5469	 -0.001000	  0.025500	  1.006000	   -0.510000	   -0.240000	    0.250000	   24.207031
    7.5569	 -0.001500	  0.024500	  1.007000	   -0.340000	   -0.170000	    0.230000	   24.218750
    7.5669	 -0.002000	  0.025000	  1.009000	   -0.510000	   -0.230000	    0.200000	   24.195313
    7.5769	 -0.000500	  0.026000	  1.007000	   -0.360000	    0.030000	    0.190000	   24.199219
    7.5869	 -0.001000	  0.024500	  1.008000	   -0.320000	   -0.110000	    0.200000	   24.160156
    7.5969	 -0.001500	  0.025500	  1.009500	   -0.390000	    0.030000	    0.330000	   24.167969
    7.6069	 -0.000500	  0.025500	  1.006000	   -0.370000	   -0.130000	    0.250000	   24.195313
    7.6170	 -0.000500	  0.025500	  1.009000	   -0.310000	   -0.160000	    0.270000	   24.210938
    7.6269	 -0.002500	  0.024500	  1.009500	   -0.320000	   -0.210000	    0.250000	   24.210938
    7.6369	 -0.001500	  0.026000	  1.006000	   -0.330000	    0.010000	    0.300000	   24.207031
    7.6469	 -0.000500	  0.024000	  1.009000	   -0.390000	   -0.250000	    0.320000	   24.222656
    7.6569	 -0.001500	  0.024000	  1.009000	   -0.280000	   -0.060000	    0.200000	   24.210938
    7.6669	 -0.001500	  0.025500	  1.005000	   -0.360000	   -0.290000	    0.210000	   24.203125
    7.6769	  0.000500	  0.025000	  1.009500	   -0.300000	   -0.080000	    0.290000	   24.203125
    7.6869	 -0.001500	  0.025000	  1.010000	   -0.370000	   -0.160000	    0.230000	   24.214844
    7.6969	 -0.002000	  0.024500	  1.004000	   -0.380000	   -0.110000	    0.280000	   24.183594
    7.7069	 -0.001000	  0.024500	  1.010000	   -0.220000	   -0.100000	    0.210000	   24.171875
    7.7170	 -0.001000	  0.025000	  1.008000	   -0.380000	   -0.050000	    0.200000	   24.207031
    7.7269	 -0.001500	  0.025000	  1.004500	   -0.410000	   -0.140000	    0.250000	   24.207031
    7.7369	 -0.002000	  0.025000	  1.010000	   -0.230000	   -0.110000	    0.320000	   24.187500
    7.7469	 -0.000500	  0.025000	  1.008000	   -0.460000	   -0.140000	    0.300000	   24.210938
    7.7569	 -0.002000	  0.025000	  1.004000	   -0.450000	   -0.060000	    0.240000	   24.218750
    7.7669	 -0.002000	  0.025000	  1.010000	   -0.380000	   -0.230000	    0.330000	   24.238281
    7.7769	  0.000000	  0.025000	  1.008000	   -0.500000	   -0.080000	    0.210000	   24.222656
    7.7869	 -0.001000	  0.025000	  1.005000	   -0.400000	   -0.150000	    0.230000	   24.222656
    7.7969	 -0.000500	  0.024500	  1.010500	   -0.260000	   -0.170000	    0.250000	   24.203125
    7.8069	  0.000000	  0.025500	  1.008000	   -0.430000	   -0.160000	    0.220000	   24.218750
    7.8170	 -0.001000	  0.025500	  1.006500	   -0.370000	   -0.090000	    0.350000	   24.226563
    7.8269	 -0.001000	  0.025000	  1.010000	   -0.490000	   -0.250000	    0.200000	   24.250000
    7.8369	 -0.001000	  0.025500	  1.008000	   -0.300000	   -0.060000	    0.220000	   24.222656
    7.8469	 -0.001500	  0.025500	  1.006500	   -0.370000	   -0.120000	    0.240000	   24.207031
    7.8570	 -0.000500	  0.026000	  1.011000	   -0.310000	   -0.090000	    0.300000	   24.214844
    7.8669	 -0.000500	  0.025000	  1.007000	   -0.450000	   -0.090000	    0.330000	   24.226563
    7.8769	 -0.001500	  0.025000	  1.005500	   -0.410000	   -0.040000	    0.350000	   24.207031
    7.8869	 -0.001500	  0.025000	  1.010500	   -0.360000	   -0.070000	    0.320000	   24.207031
    7.8969	 -0.001000	  0.024000	  1.007500	   -0.390000	   -0.050000	    0.260000	   24.222656
    7.9069	 -0.000500	  0.024500	  1.006000	   -0.440000	   -0.190000	    0.300000	   24.207031
    7.9170	 -0.001500	  0.025500	  1.011000	   -0.440000	   -0.260000	    0.230000	   24.195313
    7.9269	 -0.001000	  0.025500	  1.007500	   -0.320000	   -0.090000	    0.200000	   24.207031
    7.9369	 -0.001500	  0.025500	  1.004000	   -0.430000	   -0.150000	    0.130000	   24.210938
    7.9470	  0.000000	  0.025500	  1.013000	   -0.370000	   -0.180000	    0.190000	   24.226563
    7.9570	 -0.001000	  0.024500	  1.006000	   -0.410000	   -0.150000	    0.230000	   24.214844
    7.9669	 -0.001000	  0.025000	  1.004500	   -0.380000	   -0.140000	    0.360000	   24.207031
    7.9770	 -0.001500	  0.025500	  1.012000	   -0.360000	   -0.180000	    0.140000	   24.195313
    7.9869	 -0.001500	  0.025500	  1.007000	   -0.260000	    0.030000	    0.280000	   24.203125
    7.9970	 -0.001000	  0.025500	  1.005500	   -0.380000	   -0.290000	    0.140000	   24.199219
    8.0070	 -0.003000	  0.024000	  1.011000	   -0.480000	   -0.120000	    0.310000	   24.207031
    8.0170	 -0.000500	  0.024500	  1.008500	   -0.330000	   -0.120000	    0.240000	   24.214844
    8.0269	 -0.001000	  0.026000	  1.006000	   -0.310000	   -0.120000	    0.180000	   24.222656
    8.0369	 -0.003500	  0.025000	  1.010000	   -0.380000	   -0.150000	    0.310000	   24.242188
    8.0470	 -0.001000	  0.023500	  1.006500	   -0.370000	   -0.100000	    0.270000	   24.222656
    8.0570	 -0.001000	  0.025000	  1.005000	   -0.370000	   -0.240000	    0.110000	   24.214844
    8.0670	 -0.002000	  0.025000	  1.010500	   -0.430000	   -0.140000	    0.350000	   24.214844
    8.0773	 -0.000500	  0.025500	  1.008000	   -0.390000	    0.030000	    0.280000	   24.210938
    8.0870	 -0.001500	  0.024500	  1.005500	   -0.340000	   -0.020000	    0.270000	   24.234375
    8.0970	 -0.001000	  0.025000	  1.011000	   -0.390000	   -0.120000	    0.260000	   24.246094
    8.1070	 -0.001000	  0.024500	  1.006500	   -0.350000	   -0.100000	    0.180000	   24.207031
    8.1170	 -0.001000	  0.027000	  1.004000	   -0.460000	   -0.190000	    0.250000	   24.222656
    8.1270	 -0.001500	  0.025500	  1.011000	   -0.350000	   -0.140000	    0.230000	   24.203125
    8.1370	 -0.001500	  0.026000	  1.007500	   -0.420000	   -0.170000	    0.310000	   24.214844
    8.1470	 -0.001000	  0.026000	  1.005000	   -0.410000	   -0.200000	    0.210000	   24.207031
    8.1570	 -0.002000	  0.025500	  1.012500	   -0.470000	   -0.120000	    0.220000	   24.210938
    8.1670	 -0.001000	  0.025500	  1.006500	   -0.430000	   -0.160000	    0.300000	   24.210938
    8.1770	 -0.001000	  0.025500	  1.004500	   -0.310000	   -0.280000	    0.240000	   24.210938
    8.1870	 -0.001500	  0.025000	  1.011500	   -0.410000	   -0.140000	    0.210000	   24.222656
    8.1970	 -0.002000	  0.025000	  1.006500	   -0.410000	   -0.270000	    0.260000	   24.214844
    8.2070	 -0.001000	  0.025000	  1.006000	   -0.360000	   -0.170000	    0.220000	   24.203125
    8.2170	 -0.001000	  0.024000	  1.010000	   -0.320000	   -0.110000	    0.140000	   24.234375
    8.2270	 -0.002000	  0.024500	  1.008000	   -0.360000	   -0.080000	    0.260000	   24.253906
    8.2370	 -0.001500	  0.026000	  1.004500	   -0.350000	   -0.200000	    0.300000	   24.230469
    8.2470	 -0.001000	  0.024500	  1.011000	   -0.370000	   -0.150000	    0.280000	   24.214844
    8.2570	 -0.001500	  0.025500	  1.008500	   -0.290000	   -0.140000	    0.210000	   24.218750
    8.2670	 -0.002000	  0.025500	  1.006000	   -0.500000	   -0.260000	    0.210000	   24.230469
    8.2770	 -0.001500	  0.024500	  1.010000	   -0.290000	   -0.230000	    0.230000	   24.230469
    8.2870	 -0.001500	  0.025000	  1.008000	   -0.360000	   -0.100000	    0.210000	   24.210938
    8.2970	 -0.001500	  0.026000	  1.006000	   -0.370000	   -0.070000	    0.220000	   24.214844
    8.3070	 -0.001500	  0.025500	  1.009500	   -0.430000	   -0.290000	    0.310000	   24.242188
    8.3170	 -0.002000	  0.025000	  1.007500	   -0.390000	   -0.110000	    0.250000	   24.226563
    8.3270	  0.000000	  0.025500	  1.006500	   -0.400000	   -0.110000	    0.130000	   24.226563
    8.3370	 -0.001500	  0.024500	  1.009500	   -0.350000	   -0.270000	    0.260000	   24.238281
    8.3470	 -0.001500	  0.026000	  1.010000	   -0.310000	    0.040000	    0.350000	   24.246094
    8.3570	 -0.000500	  0.026000	  1.004000	   -0.390000	   -0.020000	    0.370000	   24.222656
    8.3670	 -0.001500	  0.024500	  1.009000	   -0.330000	   -0.240000	    0.150000	   24.253906
    8.3770	 -0.001500	  0.025000	  1.009000	   -0.430000	   -0.200000	    0.420000	   24.222656
    8.3870	 -0.001000	  0.026500	  1.006000	   -0.350000	   -0.170000	    0.150000	   24.187500
    8.3970	 -0.001500	  0.026000	  1.008000	   -0.380000	   -0.280000	    0.180000	   24.222656
    8.4070	 -0.000500	  0.024500	  1.010500	   -0.330000	   -0.130000	    0.160000	   24.222656
    8.4170	 -0.001000	  0.025500	  1.007000	   -0.380000	   -0.060000	    0.210000	   24.218750
    8.4270	 -0.001000	  0.025500	  1.007000	   -0.400000	   -0.230000	    0.280000	   24.230469
    8.4370	 -0.001500	  0.025500	  1.011500	   -0.380000	   -0.130000	    0.140000	   24.218750
    8.4470	  0.000000	  0.024500	  1.005500	   -0.460000	   -0.210000	    0.240000	   24.218750
    8.4570	 -0.001000	  0.026500	  1.008500	   -0.410000	   -0.250000	    0.260000	   24.199219
    8.4670	 -0.001500	  0.025500	  1.010500	   -0.350000	   -0.110000	    0.260000	   24.214844
    8.4770	 -0.001000	  0.024000	  1.008000	   -0.390000	    0.000000	    0.220000	   24.242188
    8.4870	 -0.001500	  0.024500	  1.006000	   -0.300000	   -0.110000	    0.170000	   24.234375
    8.4970	 -0.003000	  0.024500	  1.011000	   -0.360000	   -0.070000	    0.350000	   24.214844
    8.5070	 -0.002000	  0.025000	  1.006000	   -0.380000	   -0.080000	    0.240000	   24.230469
    8.5170	 -0.002000	  0.025000	  1.006000	   -0.350000	   -0.200000	    0.230000	   24.234375
    8.5270	 -0.001500	  0.024000	  1.011000	   -0.350000	   -0.100000	    0.160000	   24.246094
    8.5370	 -0.001500	  0.025000	  1.008500	   -0.400000	   -0.110000	    0.290000	   24.234375
    8.5470	 -0.001500	  0.025000	  1.007000	   -0.360000	   -0.180000	    0.160000	   24.226563
    8.5570	 -0.000500	  0.025500	  1.010500	   -0.360000	   -0.090000	    0.260000	   24.222656
    8.5670	 -0.001500	  0.025000	  1.010000	   -0.390000	   -0.140000	    0.170000	   24.242188
    8.5770	 -0.002000	  0.024000	  1.004000	   -0.370000	   -0.210000	    0.210000	   24.234375
    8.5870	 -0.001500	  0.025500	  1.008500	   -0.410000	   -0.170000	    0.250000	   24.222656
    8.5970	 -0.001500	  0.025000	  1.008500	   -0.370000	   -0.200000	    0.260000	   24.242188
    8.6070	 -0.001000	  0.023500	  1.005500	   -0.360000	   -0.100000	    0.200000	   24.242188
    8.6170	 -0.001500	  0.026000	  1.009500	   -0.290000	   -0.200000	    0.210000	   24.226563
    8.6270	 -0.001500	  0.025000	  1.009500	   -0.350000	   -0.130000	    0.280000	   24.218750
    8.6370	 -0.001500	  0.025000	  1.005000	   -0.450000	   -0.140000	    0.240000	   24.226563
    8.6470	 -0.001000	  0.025500	  1.007500	   -0.410000	    0.030000	    0.300000	   24.226563
    8.6570	 -0.002000	  0.024000	  1.010500	   -0.420000	   -0.170000	    0.210000	   24.222656
    8.6670	 -0.000500	  0.025000	  1.006000	   -0.320000	   -0.090000	    0.310000	   24.207031
    8.6770	 -0.000500	  0.026500	  1.008000	   -0.320000	   -0.210000	    0.220000	   24.218750
    8.6870	 -0.002500	  0.024500	  1.010500	   -0.410000	   -0.110000	    0.140000	   24.226563
    8.6970	 -0.002500	  0.024000	  1.006000	   -0.380000	   -0.170000	    0.170000	   24.222656
    8.7070	 -0.001500	  0.025000	  1.007000	   -0.290000	   -0.220000	    0.230000	   24.226563
    8.7170	 -0.001000	  0.024500	  1.010500	   -0.340000	   -0.150000	    0.290000	   24.242188
    8.7270	 -0.001000	  0.025500	  1.007000	   -0.320000	   -0.170000	    0.230000	   24.207031
    8.7370	 -0.001000	  0.025500	  1.006000	   -0.400000	   -0.210000	    0.320000	   24.207031
    8.7470	 -0.000500	  0.024000	  1.010000	   -0.280000	   -0.200000	    0.210000	   24.218750
    8.7570	 -0.001500	  0.026000	  1.008500	   -0.450000	   -0.060000	    0.280000	   24.230469
    8.7670	 -0.001000	  0.025000	  1.005000	   -0.350000	   -0.170000	    0.200000	   24.230469
    8.7770	 -0.000500	  0.025500	  1.008000	   -0.310000	   -0.190000	    0.240000	   24.214844
    8.7870	 -0.000500	  0.025000	  1.008000	   -0.330000	   -0.060000	    0.280000	   24.214844
    8.7970	  0.000000	  0.026000	  1.005000	   -0.450000	   -0.260000	    0.330000	   24.230469
    8.8070	 -0.001000	  0.024000	  1.008500	   -0.370000	   -0.250000	    0.260000	   24.218750
    8.8170	 -0.000500	  0.025500	  1.007500	   -0.400000	   -0.030000	    0.210000	   24.218750
    8.8270	 -0.001500	  0.024500	  1.005500	   -0.380000	   -0.180000	    0.210000	   24.218750
    8.8370	 -0.001500	  0.026000	  1.008000	   -0.430000	   -0.180000	    0.220000	   24.238281
    8.8470	 -0.001000	  0.025000	  1.010000	   -0.390000	   -0.080000	    0.250000	   24.238281
    8.8570	  0.000000	  0.026000	  1.005000	   -0.310000	   -0.120000	    0.200000	   24.207031
    8.8670	  0.000000	  0.024500	  1.008000	   -0.260000	    0.020000	    0.220000	   24.207031
    8.8770	 -0.001000	  0.025000	  1.009500	   -0.340000	   -0.100000	    0.340000	   24.195313
    8.8870	 -0.001000	  0.024500	  1.004500	   -0.450000	   -0.100000	    0.190000	   24.226563
    8.8970	 -0.001000	  0.025500	  1.007000	   -0.300000	   -0.090000	    0.190000	   24.230469
    8.9070	 -0.002000	  0.024000	  1.011500	   -0.460000	   -0.300000	    0.380000	   24.214844
    8.9170	 -0.001000	  0.026500	  1.006000	   -0.440000	   -0.060000	    0.290000	   24.230469
    8.9270	 -0.001000	  0.026000	  1.006500	   -0.270000	   -0.120000	    0.260000	   24.234375
    8.9370	 -0.001000	  0.024000	  1.011500	   -0.510000	   -0.130000	    0.260000	   24.238281
    8.9470	 -0.000500	  0.025000	  1.006000	   -0.450000	   -0.010000	    0.280000	   24.222656
    8.9570	  0.000000	  0.026500	  1.006000	   -0.360000	   -0.250000	    0.240000	   24.242188
    8.9670	 -0.001500	  0.025500	  1.012000	   -0.310000	   -0.180000	    0.150000	   24.226563
    8.9770	 -0.001000	  0.024000	  1.006000	   -0.360000	   -0.200000	    0.300000	   24.203125
    8.9870	 -0.001000	  0.025000	  1.006000	   -0.280000	   -0.200000	    0.130000	   24.207031
    8.9970	 -0.002000	  0.024500	  1.009000	   -0.430000	   -0.160000	    0.200000	   24.222656
    9.0070	 -0.001500	  0.025000	  1.006500	   -0.400000	   -0.140000	    0.240000	   24.246094
    9.0170	 -0.000500	  0.024000	  1.005000	   -0.430000	   -0.090000	    0.240000	   24.234375
    9.0270	 -0.002000	  0.024500	  1.010500	   -0.440000	   -0.120000	    0.350000	   24.207031
    9.0370	 -0.002000	  0.023500	  1.007500	   -0.450000	   -0.200000	    0.230000	   24.222656
    9.0470	 -0.002500	  0.025500	  1.006500	   -0.360000	   -0.120000	    0.160000	   24.234375
    9.0570	 -0.002000	  0.024500	  1.009500	   -0.320000	   -0.070000	    0.180000	   24.238281
    9.0670	 -0.002500	  0.026000	  1.007000	   -0.250000	   -0.190000	    0.250000	   24.222656
    9.0774	 -0.002000	  0.026000	  1.006500	   -0.330000	    0.000000	    0.160000	   24.242188
    9.0870	 -0.001500	  0.024500	  1.008500	   -0.350000	   -0.300000	    0.310000	   24.246094
    9.0970	 -0.002500	  0.024000	  1.009000	   -0.490000	   -0.230000	    0.290000	   24.253906
    9.1070	 -0.000500	  0.025000	  1.006500	   -0.330000	   -0.080000	    0.230000	   24.214844
    9.1171	 -0.001500	  0.025000	  1.008000	   -0.400000	   -0.200000	    0.310000	   24.234375
    9.1270	 -0.002000	  0.024500	  1.007500	   -0.310000	   -0.020000	    0.250000	   24.230469
    9.1370	 -0.000500	  0.025500	  1.007500	   -0.530000	   -0.140000	    0.270000	   24.238281
    9.1470	  0.000000	  0.026500	  1.008000	   -0.270000	   -0.120000	    0.360000	   24.226563
    9.1570	 -0.002000	  0.025500	  1.007500	   -0.360000	   -0.270000	    0.280000	   24.210938
    9.1670	 -0.000500	  0.024500	  1.007500	   -0.400000	   -0.110000	    0.160000	   24.207031
    9.1770	  0.000000	  0.025500	  1.007000	   -0.430000	   -0.290000	    0.240000	   24.203125
    9.1870	 -0.002000	  0.026000	  1.007000	   -0.450000	   -0.110000	    0.050000	   24.230469
    9.1970	 -0.002000	  0.025500	  1.006500	   -0.480000	   -0.170000	    0.270000	   24.246094
    9.2070	 -0.001000	  0.025500	  1.009000	   -0.380000	   -0.240000	    0.300000	   24.234375
    9.2171	 -0.001000	  0.025000	  1.008000	   -0.360000	   -0.160000	    0.160000	   24.242188
    9.2270	 -0.001500	  0.026000	  1.008500	   -0.340000	   -0.300000	    0.220000	   24.230469
    9.2370	 -0.001000	  0.025000	  1.008000	   -0.360000	   -0.210000	    0.240000	   24.218750
    9.2470	 -0.000500	  0.026000	  1.008500	   -0.400000	   -0.070000	    0.340000	   24.230469
    9.2570	 -0.002000	  0.025500	  1.006500	   -0.360000	   -0.090000	    0.220000	   24.226563
    9.2670	 -0.002000	  0.024500	  1.009000	   -0.410000	   -0.140000	    0.220000	   24.218750
    9.2770	 -0.001000	  0.026000	  1.007500	   -0.420000	   -0.110000	    0.310000	   24.257813
    9.2870	 -0.001000	  0.025500	  1.009500	   -0.300000	   -0.130000	    0.170000	   24.246094
    9.2970	 -0.002500	  0.024000	  1.008500	   -0.390000	   -0.210000	    0.200000	   24.222656
    9.3070	 -0.000500	  0.024500	  1.007000	   -0.460000	   -0.210000	    0.280000	   24.234375
    9.3171	 -0.000500	  0.025000	  1.006500	   -0.490000	   -0.200000	    0.210000	   24.250000
    9.3270	 -0.003000	  0.025000	  1.008000	   -0.280000	   -0.050000	    0.140000	   24.253906
    9.3370	 -0.001500	  0.026500	  1.008500	   -0.350000	   -0.260000	    0.290000	   24.269531
    9.3470	  0.000000	  0.024000	  1.007500	   -0.320000	   -0.110000	    0.180000	   24.257813
    9.3570	 -0.001000	  0.025500	  1.008000	   -0.330000	   -0.070000	    0.290000	   24.226563
    9.3670	 -0.001500	  0.024500	  1.007500	   -0.430000	   -0.210000	    0.350000	   24.250000
    9.3770	  0.000000	  0.025500	  1.007000	   -0.370000	    0.000000	    0.140000	   24.234375
    9.3870	 -0.001000	  0.025000	  1.008500	   -0.390000	   -0.150000	    0.170000	   24.230469
    9.3970	 -0.002000	  0.025500	  1.007000	   -0.390000	   -0.180000	    0.310000	   24.242188
    9.4070	 -0.001000	  0.024000	  1.007500	   -0.340000	   -0.100000	    0.250000	   24.230469
    9.4171	  0.000000	  0.025000	  1.008000	   -0.370000	   -0.090000	    0.250000	   24.242188
    9.4270	 -0.001000	  0.026000	  1.006000	   -0.300000	   -0.120000	    0.170000	   24.226563
    9.4370	 -0.001500	  0.026000	  1.007000	   -0.240000	   -0.160000	    0.190000	   24.238281
    9.4470	 -0.001000	  0.025500	  1.009000	   -0.310000	   -0.190000	    0.270000	   24.238281
    9.4571	 -0.001000	  0.025000	  1.008000	   -0.330000	   -0.110000	    0.240000	   24.250000
    9.4670	 -0.001500	  0.025000	  1.007000	   -0.290000	   -0.150000	    0.410000	   24.234375
    9.4770	 -0.001500	  0.025000	  1.008000	   -0.350000	   -0.080000	    0.090000	   24.238281
    9.4870	 -0.000500	  0.024500	  1.008000	   -0.260000	   -0.040000	    0.110000	   24.261719
    9.4970	 -0.002500	  0.025500	  1.007000	   -0.370000	   -0.060000	    0.200000	   24.246094
    9.5070	 -0.002000	  0.025000	  1.008000	   -0.410000	   -0.190000	    0.230000	   24.257813
    9.5171	 -0.002000	  0.024500	  1.009000	   -0.400000	   -0.220000	    0.350000	   24.238281
    9.5270	 -0.001500	  0.025500	  1.006500	   -0.350000	   -0.200000	    0.240000	   24.234375
    9.5371	 -0.001500	  0.024500	  1.007500	   -0.390000	   -0.140000	    0.340000	   24.234375
    9.5470	 -0.001500	  0.025000	  1.008500	   -0.460000	   -0.110000	    0.260000	   24.269531
    9.5571	 -0.001500	  0.024500	  1.006500	   -0.300000	    0.030000	    0.240000	   24.226563
    9.5671	 -0.001000	  0.025000	  1.007500	   -0.380000	   -0.210000	    0.240000	   24.230469
    9.5771	 -0.000500	  0.026500	  1.009500	   -0.330000	   -0.200000	    0.250000	   24.234375
    9.5870	 -0.002000	  0.025500	  1.007000	   -0.470000	   -0.100000	    0.280000	   24.230469
    9.5971	 -0.002000	  0.024500	  1.008500	   -0.380000	   -0.120000	    0.200000	   24.234375
    9.6071	 -0.000500	  0.024500	  1.008000	   -0.360000	   -0.210000	    0.200000	   24.253906
    9.6171	 -0.001000	  0.025500	  1.006000	   -0.310000	   -0.090000	    0.270000	   24.253906
    9.6271	 -0.001000	  0.025500	  1.009000	   -0.380000	   -0.220000	    0.280000	   24.242188
    9.6370	 -0.000500	  0.025000	  1.007000	   -0.390000	   -0.160000	    0.350000	   24.257813
    9.6471	 -0.001000	  0.024000	  1.008000	   -0.330000	   -0.030000	    0.280000	   24.253906
    9.6571	 -0.002000	  0.025000	  1.007500	   -0.400000	   -0.200000	    0.290000	   24.226563
    9.6671	 -0.002000	  0.025500	  1.007000	   -0.480000	   -0.120000	    0.390000	   24.222656
    9.6771	 -0.000500	  0.025500	  1.006500	   -0.440000	   -0.070000	    0.300000	   24.257813
    9.6871	 -0.001500	  0.025500	  1.007000	   -0.310000	   -0.240000	    0.230000	   24.242188
    9.6971	 -0.001500	  0.025500	  1.009000	   -0.330000	   -0.150000	    0.290000	   24.242188
    9.7071	 -0.001000	  0.025000	  1.007500	   -0.370000	   -0.090000	    0.250000	   24.250000
    9.7171	 -0.001000	  0.024500	  1.008500	   -0.450000	   -0.110000	    0.290000	   24.222656
    9.7271	 -0.002500	  0.024000	  1.008500	   -0.430000	   -0.260000	    0.260000	   24.218750
    9.7371	 -0.001500	  0.025500	  1.008500	   -0.420000	   -0.200000	    0.160000	   24.242188
    9.7471	 -0.001000	  0.025000	  1.008500	   -0.300000	   -0.200000	    0.140000	   24.214844
    9.7571	 -0.001000	  0.025000	  1.009500	   -0.310000	   -0.150000	    0.250000	   24.214844
    9.7671	 -0.001000	  0.025000	  1.006000	   -0.320000	   -0.070000	    0.240000	   24.218750
    9.7771	 -0.001000	  0.026500	  1.008500	   -0.350000	   -0.090000	    0.150000	   24.238281
    9.7871	 -0.001000	  0.025000	  1.007000	   -0.280000	   -0.110000	    0.280000	   24.238281
    9.7971	 -0.001000	  0.025500	  1.008000	   -0.330000	   -0.220000	    0.240000	   24.234375
    9.8071	  0.000000	  0.025000	  1.006000	   -0.360000	   -0.190000	    0.250000	   24.238281
    9.8171	 -0.001500	  0.025000	  1.008500	   -0.380000	   -0.100000	    0.120000	   24.253906
    9.8271	 -0.001000	  0.024500	  1.008500	   -0.410000	   -0.190000	    0.260000	   24.242188
    9.8371	  0.000000	  0.026500	  1.008500	   -0.330000	   -0.190000	    0.220000	   24.230469
    9.8471	 -0.000500	  0.025000	  1.008500	   -0.450000	   -0.210000	    0.260000	   24.250000
    9.8571	 -0.001000	  0.025500	  1.007500	   -0.390000	    0.020000	    0.340000	   24.253906
    9.8671	 -0.001000	  0.024500	  1.008000	   -0.320000	   -0.090000	    0.230000	   24.253906
    9.8771	 -0.002000	  0.024000	  1.009500	   -0.410000	   -0.160000	    0.250000	   24.230469
    9.8871	 -0.002000	  0.025000	  1.006500	   -0.460000	   -0.190000	    0.320000	   24.222656
    9.8971	 -0.001500	  0.025000	  1.006500	   -0.390000	   -0.100000	    0.340000	   24.238281
    9.9071	  0.000500	  0.025500	  1.008000	   -0.250000	   -0.110000	    0.310000	   24.242188
    9.9171	 -0.001000	  0.025500	  1.008000	   -0.400000	   -0.130000	    0.240000	   24.218750
    9.9271	 -0.002000	  0.025000	  1.007000	   -0.310000	   -0.160000	    0.260000	   24.226563
    9.9371	 -0.002000	  0.024500	  1.009500	   -0.360000	   -0.050000	    0.190000	   24.214844
    9.9471	 -0.001000	  0.026000	  1.007500	   -0.410000	   -0.110000	    0.280000	   24.234375
    9.9571	 -0.001000	  0.024500	  1.008500	   -0.300000	   -0.080000	    0.250000	   24.250000
    9.9671	 -0.000500	  0.025500	  1.007500	   -0.360000	   -0.140000	    0.260000	   24.242188
    9.9771	 -0.001000	  0.025500	  1.007500	   -0.380000	   -0.080000	    0.250000	   24.234375
    9.9871	 -0.001000	  0.026500	  1.009000	   -0.320000	   -0.110000	    0.220000	   24.214844
    9.9971	 -0.001500	  0.024500	  1.009500	   -0.410000	   -0.050000	    0.260000	   24.230469
   10.0071	 -0.001000	  0.025000	  1.006500	   -0.410000	   -0.110000	    0.270000	   24.250000
   10.0171	 -0.001500	  0.025000	  1.008500	   -0.320000	   -0.160000	    0.370000	   24.222656
   10.0271	 -0.002000	  0.026500	  1.008000	   -0.290000	   -0.140000	    0.320000	   24.222656
   10.0371	 -0.002000	  0.026000	  1.007000	   -0.340000	   -0.210000	    0.230000	   24.242188
   10.0471	 -0.002000	  0.025000	  1.009000	   -0.380000	   -0.230000	    0.130000	   24.218750
   10.0571	 -0.002000	  0.025000	  1.007000	   -0.370000	   -0.180000	    0.300000	   24.226563
   10.0671	  0.000000	  0.026000	  1.008000	   -0.330000	   -0.090000	    0.130000	   24.261719
   10.0774	 -0.001000	  0.025500	  1.007000	   -0.430000	   -0.220000	    0.280000	   24.226563
   10.0871	 -0.001500	  0.024000	  1.009500	   -0.340000	   -0.220000	    0.320000	   24.253906
   10.0971	 -0.001000	  0.024500	  1.007500	   -0.380000	   -0.230000	    0.270000	   24.230469
   10.1071	 -0.001000	  0.026000	  1.007500	   -0.390000	   -0.130000	    0.280000	   24.238281
   10.1171	 -0.001500	  0.026000	  1.007000	   -0.330000	   -0.110000	    0.160000	   24.246094
   10.1271	 -0.003000	  0.025500	  1.009000	   -0.480000	   -0.210000	    0.190000	   24.234375
   10.1371	 -0.001000	  0.025500	  1.008000	   -0.360000	    0.030000	    0.110000	   24.234375
   10.1471	 -0.001000	  0.024500	  1.009000	   -0.390000	   -0.200000	    0.270000	   24.242188
   10.1571	 -0.001500	  0.025500	  1.008000	   -0.500000	   -0.160000	    0.220000	   24.234375
   10.1671	 -0.002000	  0.024000	  1.007000	   -0.330000	   -0.220000	    0.290000	   24.253906
   10.1771	 -0.000500	  0.026000	  1.009000	   -0.340000	   -0.180000	    0.210000	   24.265625
   10.1871	 -0.001000	  0.024000	  1.008000	   -0.370000	   -0.170000	    0.270000	   24.257813
   10.1971	 -0.002000	  0.024500	  1.007500	   -0.490000	   -0.130000	    0.350000	   24.230469
   10.2071	 -0.001500	  0.025000	  1.007500	   -0.440000	   -0.180000	    0.270000	   24.234375
   10.2171	 -0.000500	  0.026000	  1.008000	   -0.300000	   -0.210000	    0.260000	   24.238281
   10.2271	 -0.002000	  0.023500	  1.005500	   -0.370000	   -0.210000	    0.290000	   24.242188
   10.2371	 -0.002000	  0.026500	  1.010000	   -0.370000	   -0.040000	    0.230000	   24.250000
   10.2471	 -0.002000	  0.024000	  1.006000	   -0.310000	   -0.060000	    0.290000	   24.234375
   10.2571	 -0.002500	  0.026000	  1.009500	   -0.300000	   -0.280000	    0.150000	   24.210938
   10.2671	 -0.001500	  0.025000	  1.008500	   -0.410000	   -0.110000	    0.220000	   24.242188
   10.2771	  0.000000	  0.025500	  1.008000	   -0.330000	   -0.190000	    0.240000	   24.250000
   10.2871	 -0.001000	  0.025500	  1.008000	   -0.420000	   -0.190000	    0.210000	   24.238281
   10.2971	 -0.001000	  0.025500	  1.008000	   -0.230000	   -0.090000	    0.190000	   24.246094
   10.3071	 -0.000500	  0.026000	  1.007500	   -0.330000	   -0.190000	    0.260000	   24.238281
   10.3171	  0.000500	  0.024500	  1.008000	   -0.400000	   -0.190000	    0.160000	   24.218750
   10.3271	 -0.002000	  0.024500	  1.010000	   -0.340000	   -0.100000	    0.240000	   24.257813
   10.3371	 -0.001500	  0.024500	  1.007000	   -0.400000	    0.000000	    0.200000	   24.261719
   10.3471	 -0.001000	  0.025500	  1.009000	   -0.430000	   -0.220000	    0.320000	   24.242188
   10.3571	 -0.001500	  0.025000	  1.005500	   -0.300000	   -0.160000	    0.250000	   24.222656
   10.3671	 -0.000500	  0.025500	  1.008000	   -0.240000	   -0.230000	    0.260000	   24.253906
   10.3771	 -0.000500	  0.023500	  1.008500	   -0.370000	   -0.120000	    0.260000	   24.250000
   10.3871	 -0.000500	  0.025500	  1.009000	   -0.340000	   -0.010000	    0.190000	   24.238281
   10.3971	 -0.001000	  0.024000	  1.008000	   -0.410000	   -0.290000	    0.280000	   24.261719
   10.4071	 -0.000500	  0.025000	  1.007000	   -0.280000	    0.000000	    0.290000	   24.269531
   10.4171	 -0.001000	  0.025500	  1.009500	   -0.480000	   -0.220000	    0.200000	   24.238281
   10.4271	 -0.001000	  0.024500	  1.006500	   -0.400000	   -0.160000	    0.220000	   24.253906
   10.4371	 -0.001000	  0.024000	  1.010500	   -0.330000	   -0.080000	    0.290000	   24.246094
   10.4471	  0.000000	  0.024500	  1.007500	   -0.430000	   -0.180000	    0.230000	   24.246094
   10.4571	 -0.001000	  0.025000	  1.006500	   -0.390000	   -0.240000	    0.270000	   24.261719
   10.4671	 -0.001000	  0.024500	  1.007500	   -0.420000	   -0.090000	    0.290000	   24.234375
   10.4771	 -0.001000	  0.025000	  1.008500	   -0.340000	   -0.130000	    0.190000	   24.242188
   10.4871	 -0.001500	  0.026000	  1.008500	   -0.240000	   -0.110000	    0.180000	   24.261719
   10.4971	 -0.001000	  0.024500	  1.006500	   -0.460000	   -0.070000	    0.210000	   24.253906
   10.5071	 -0.001500	  0.026000	  1.009000	   -0.280000	   -0.080000	    0.220000	   24.257813
   10.5171	 -0.002000	  0.025500	  1.007000	   -0.370000	   -0.120000	    0.360000	   24.289063
   10.5271	 -0.001500	  0.025500	  1.007500	   -0.290000	   -0.120000	    0.200000	   24.269531
   10.5371	 -0.001500	  0.024500	  1.009500	   -0.420000	   -0.150000	    0.220000	   24.246094
   10.5471	  0.000000	  0.025000	  1.006500	   -0.360000	   -0.180000	    0.190000	   24.230469
   10.5571	 -0.001500	  0.025000	  1.008500	   -0.360000	   -0.150000	    0.290000	   24.253906
   10.5671	 -0.002000	  0.024000	  1.008500	   -0.410000	   -0.030000	    0.270000	   24.273438
   10.5771	  0.000000	  0.025500	  1.006500	   -0.500000	   -0.180000	    0.310000	   24.242188
   10.5871	 -0.001000	  0.024500	  1.008000	   -0.400000	   -0.090000	    0.220000	   24.250000
   10.5971	 -0.003000	  0.026000	  1.008500	   -0.400000	   -0.090000	    0.270000	   24.265625
   10.6071	 -0.000500	  0.024000	  1.008000	   -0.260000	   -0.100000	    0.270000	   24.261719
   10.6172	  0.000000	  0.026000	  1.008000	   -0.350000	   -0.140000	    0.210000	   24.273438
   10.6271	 -0.002000	  0.025000	  1.008000	   -0.300000	   -0.250000	    0.290000	   24.269531
   10.6371	 -0.001500	  0.025000	  1.008500	   -0.370000	   -0.180000	    0.200000	   24.265625
   10.6471	 -0.001000	  0.025000	  1.008000	   -0.300000	    0.030000	    0.300000	   24.246094
   10.6571	 -0.001500	  0.025000	  1.009500	   -0.280000	   -0.200000	    0.200000	   24.253906
   10.6671	 -0.001500	  0.025500	  1.006500	   -0.430000	   -0.170000	    0.230000	   24.253906
   10.6771	 -0.001500	  0.025500	  1.008500	   -0.470000	   -0.160000	    0.260000	   24.238281
   10.6871	 -0.002000	  0.025000	  1.007500	   -0.460000	   -0.150000	    0.210000	   24.238281
   10.6971	 -0.001000	  0.025000	  1.007000	   -0.420000	   -0.280000	    0.240000	   24.250000
   10.7071	 -0.000500	  0.025000	  1.008000	   -0.340000	   -0.190000	    0.300000	   24.261719
   10.7171	 -0.001500	  0.025500	  1.008000	   -0.350000	   -0.050000	    0.200000	   24.257813
   10.7271	 -0.001500	  0.025500	  1.006500	   -0.370000	   -0.140000	    0.140000	   24.250000
   10.7371	 -0.001500	  0.024500	  1.008000	   -0.350000	   -0.130000	    0.180000	   24.257813
   10.7471	 -0.000500	  0.025000	  1.009500	   -0.280000	   -0.080000	    0.160000	   24.238281
   10.7571	 -0.001500	  0.024000	  1.005500	   -0.440000	   -0.200000	    0.160000	   24.238281
   10.7671	 -0.001500	  0.025500	  1.007000	   -0.360000	   -0.140000	    0.240000	   24.257813
   10.7771	 -0.001500	  0.025000	  1.007000	   -0.430000	   -0.010000	    0.250000	   24.265625
   10.7871	 -0.002500	  0.026500	  1.008000	   -0.340000	   -0.140000	    0.210000	   24.238281
   10.7971	 -0.003000	  0.025000	  1.007000	   -0.400000	   -0.120000	    0.230000	   24.238281
   10.8071	 -0.001500	  0.026000	  1.008000	   -0.430000	   -0.240000	    0.190000	   24.253906
   10.8172	 -0.000500	  0.025500	  1.008000	   -0.250000	   -0.250000	    0.240000	   24.230469
   10.8271	 -0.002000	  0.025500	  1.006000	   -0.460000	   -0.130000	    0.270000	   24.226563
   10.8371	 -0.001500	  0.025500	  1.007000	   -0.270000	   -0.110000	    0.190000	   24.253906
   10.8471	  0.000000	  0.024500	  1.008500	   -0.450000	   -0.190000	    0.300000	   24.250000
   10.8571	 -0.001500	  0.025000	  1.007500	   -0.320000	   -0.250000	    0.230000	   24.253906
   10.8671	 -0.002500	  0.024500	  1.007500	   -0.390000	   -0.100000	    0.220000	   24.257813
   10.8771	 -0.001000	  0.025500	  1.008000	   -0.370000	   -0.170000	    0.270000	   24.253906
   10.8871	 -0.001000	  0.025500	  1.006500	   -0.390000	   -0.280000	    0.280000	   24.253906
   10.8971	 -0.002500	  0.025500	  1.008000	   -0.370000	   -0.140000	    0.200000	   24.269531
   10.9071	 -0.001500	  0.024500	  1.009000	   -0.390000	   -0.160000	    0.260000	   24.253906
   10.9172	 -0.000500	  0.025000	  1.007000	   -0.300000	   -0.020000	    0.240000	   24.238281
   10.9271	 -0.002500	  0.025500	  1.008500	   -0.380000	   -0.170000	    0.180000	   24.253906
   10.9371	 -0.001500	  0.026000	  1.006500	   -0.400000	   -0.150000	    0.260000	   24.261719
   10.9471	 -0.001000	  0.026000	  1.009000	   -0.380000	   -0.180000	    0.360000	   24.253906
   10.9571	 -0.001000	  0.025000	  1.007000	   -0.490000	   -0.180000	    0.250000	   24.277344
   10.9671	 -0.002000	  0.024500	  1.008000	   -0.240000	   -0.090000	    0.270000	   24.250000
   10.9771	 -0.001500	  0.025500	  1.006500	   -0.400000	   -0.160000	    0.260000	   24.269531
   10.9871	 -0.001000	  0.025000	  1.008000	   -0.380000	   -0.150000	    0.130000	   24.273438
   10.9971	 -0.001500	  0.025000	  1.008000	   -0.260000	   -0.210000	    0.210000	   24.246094
   11.0071	 -0.000500	  0.024000	  1.008500	   -0.290000	   -0.150000	    0.300000	   24.277344
   11.0171	 -0.001000	  0.026000	  1.007000	   -0.450000	   -0.120000	    0.320000	   24.261719
   11.0271	 -0.002000	  0.025500	  1.007500	   -0.470000	   -0.380000	    0.230000	   24.265625
   11.0371	 -0.001500	  0.025500	  1.008000	   -0.490000	   -0.230000	    0.330000	   24.277344
   11.0471	 -0.000500	  0.024500	  1.007000	   -0.300000	   -0.060000	    0.160000	   24.253906
   11.0571	 -0.002500	  0.024500	  1.008500	   -0.290000	   -0.220000	    0.310000	   24.246094
   11.0671	 -0.002500	  0.024500	  1.007000	   -0.360000	   -0.140000	    0.150000	   24.246094
   11.0775	 -0.001000	  0.026000	  1.009000	   -0.420000	   -0.050000	    0.350000	   24.250000
   11.0871	 -0.002500	  0.025500	  1.007000	   -0.250000	   -0.200000	    0.280000	   24.285156
   11.0971	 -0.002000	  0.024500	  1.007000	   -0.370000	   -0.110000	    0.150000	   24.273438
   11.1071	 -0.001500	  0.024500	  1.007000	   -0.430000	   -0.150000	    0.290000	   24.261719
   11.1172	  0.000500	  0.026000	  1.007500	   -0.440000	   -0.210000	    0.360000	   24.226563
   11.1271	 -0.000500	  0.025500	  1.007500	   -0.290000	   -0.140000	    0.070000	   24.238281
   11.1371	 -0.001500	  0.025500	  1.008500	   -0.440000	   -0.170000	    0.200000	   24.253906
   11.1471	 -0.001500	  0.025500	  1.007500	   -0.340000	   -0.180000	    0.300000	   24.269531
   11.1571	  0.000000	  0.025000	  1.007500	   -0.320000	   -0.150000	    0.300000	   24.273438
   11.1671	 -0.001500	  0.026000	  1.008500	   -0.460000	   -0.260000	    0.240000	   24.253906
   11.1771	 -0.000500	  0.026000	  1.008000	   -0.370000	   -0.130000	    0.230000	   24.242188
   11.1871	  0.000000	  0.024500	  1.009500	   -0.330000	   -0.100000	    0.210000	   24.265625
   11.1971	 -0.000500	  0.026000	  1.009000	   -0.230000	   -0.050000	    0.170000	   24.250000
   11.2071	 -0.001000	  0.025000	  1.007000	   -0.290000	   -0.170000	    0.240000	   24.269531
   11.2172	 -0.001000	  0.026000	  1.008000	   -0.360000	   -0.100000	    0.190000	   24.261719
   11.2272	 -0.001000	  0.025000	  1.008000	   -0.250000	   -0.260000	    0.230000	   24.242188
   11.2371	 -0.001000	  0.025500	  1.006500	   -0.470000	   -0.230000	    0.230000	   24.238281
   11.2472	 -0.001000	  0.025500	  1.008500	   -0.310000	   -0.180000	    0.250000	   24.226563
   11.2572	 -0.001000	  0.025000	  1.007500	   -0.360000	   -0.060000	    0.270000	   24.246094
   11.2672	 -0.000500	  0.026000	  1.008000	   -0.410000	   -0.150000	    0.190000	   24.257813
   11.2772	 -0.001500	  0.025000	  1.006500	   -0.420000	   -0.230000	    0.340000	   24.246094
   11.2872	 -0.000500	  0.024000	  1.010000	   -0.400000	    0.010000	    0.240000	   24.242188
   11.2972	 -0.001000	  0.026500	  1.006000	   -0.240000	   -0.080000	    0.230000	   24.257813
   11.3072	 -0.000500	  0.026000	  1.007500	   -0.330000	   -0.170000	    0.330000	   24.253906
   11.3172	 -0.000500	  0.026500	  1.007500	   -0.400000	   -0.160000	    0.250000	   24.261719
   11.3272	 -0.001000	  0.025500	  1.007500	   -0.470000	   -0.040000	    0.220000	   24.257813
   11.3372	 -0.001500	  0.025500	  1.009500	   -0.350000	   -0.140000	    0.240000	   24.265625
   11.3472	  0.000500	  0.026000	  1.008000	   -0.390000	   -0.060000	    0.190000	   24.269531
   11.3572	 -0.000500	  0.025500	  1.007000	   -0.330000	   -0.200000	    0.230000	   24.265625
   11.3672	 -0.001000	  0.025000	  1.008000	   -0.440000	   -0.170000	    0.320000	   24.250000
   11.3772	 -0.001500	  0.024000	  1.006500	   -0.330000	   -0.140000	    0.230000	   24.261719
   11.3872	 -0.001500	  0.025500	  1.007500	   -0.450000	   -0.290000	    0.200000	   24.269531
   11.3972	 -0.002000	  0.026000	  1.007500	   -0.350000	   -0.170000	    0.340000	   24.269531
   11.4072	 -0.002000	  0.025500	  1.008000	   -0.370000	   -0.070000	    0.290000	   24.273438
   11.4172	 -0.001000	  0.024500	  1.007500	   -0.320000	   -0.120000	    0.240000	   24.261719
   11.4272	 -0.001500	  0.024500	  1.006000	   -0.290000	   -0.140000	    0.290000	   24.269531
   11.4372	 -0.001500	  0.024000	  1.007500	   -0.350000	   -0.230000	    0.280000	   24.257813
   11.4472	 -0.001000	  0.025500	  1.008500	   -0.470000	   -0.230000	    0.190000	   24.246094
   11.4572	 -0.001500	  0.025500	  1.008000	   -0.310000	   -0.120000	    0.330000	   24.257813
   11.4672	 -0.001000	  0.024000	  1.008500	   -0.440000	   -0.270000	    0.310000	   24.277344
   11.4772	 -0.001000	  0.025500	  1.007500	   -0.280000	   -0.250000	    0.240000	   24.273438
   11.4872	 -0.001000	  0.025500	  1.007500	   -0.470000	   -0.200000	    0.260000	   24.253906
   11.4972	 -0.000500	  0.025500	  1.008000	   -0.400000	   -0.180000	    0.320000	   24.253906
   11.5072	 -0.001000	  0.024500	  1.008000	   -0.420000	   -0.140000	    0.310000	   24.246094
   11.5172	 -0.001000	  0.025000	  1.008500	   -0.440000	   -0.120000	    0.200000	   24.257813
   11.5272	 -0.001000	  0.026000	  1.008000	   -0.320000	   -0.190000	    0.200000	   24.257813
   11.5372	 -0.000500	  0.025000	  1.007500	   -0.360000	   -0.080000	    0.280000	   24.246094
   11.5472	 -0.001500	  0.025500	  1.007000	   -0.330000	   -0.270000	    0.210000	   24.242188
   11.5572	 -0.001000	  0.025000	  1.008000	   -0.300000	   -0.010000	    0.180000	   24.250000
   11.5672	 -0.001500	  0.025500	  1.008500	   -0.380000	   -0.220000	    0.200000	   24.257813
   11.5772	  0.000000	  0.027000	  1.007000	   -0.300000	   -0.240000	    0.190000	   24.238281
   11.5872	 -0.002500	  0.025500	  1.008000	   -0.450000	   -0.140000	    0.210000	   24.246094
   11.5972	 -0.001500	  0.025500	  1.007500	   -0.470000	   -0.050000	    0.230000	   24.246094
   11.6072	  0.000000	  0.024500	  1.008000	   -0.390000	    0.020000	    0.240000	   24.261719
   11.6172	 -0.001000	  0.024000	  1.008000	   -0.460000	   -0.180000	    0.240000	   24.269531
   11.6272	 -0.001000	  0.025000	  1.006500	   -0.350000	   -0.170000	    0.370000	   24.269531
   11.6372	 -0.001000	  0.025500	  1.007500	   -0.420000	   -0.210000	    0.200000	   24.257813
   11.6472	 -0.001000	  0.025500	  1.008500	   -0.470000	   -0.120000	    0.140000	   24.257813
   11.6572	 -0.001000	  0.026000	  1.007500	   -0.330000	   -0.090000	    0.160000	   24.257813
   11.6672	 -0.002500	  0.026500	  1.007000	   -0.330000	   -0.150000	    0.250000	   24.269531
   11.6772	 -0.001500	  0.025500	  1.008500	   -0.340000	   -0.080000	    0.320000	   24.265625
   11.6872	 -0.001000	  0.026000	  1.007000	   -0.410000	   -0.170000	    0.260000	   24.261719
   11.6972	 -0.001500	  0.025500	  1.007500	   -0.300000	   -0.250000	    0.270000	   24.261719
   11.7072	 -0.001000	  0.025000	  1.009000	   -0.390000	   -0.120000	    0.150000	   24.281250
   11.7172	 -0.001500	  0.025000	  1.007500	   -0.410000	   -0.070000	    0.330000	   24.277344
   11.7272	 -0.001000	  0.025000	  1.008000	   -0.400000	   -0.200000	    0.250000	   24.261719
   11.7372	 -0.000500	  0.025500	  1.007500	   -0.390000	   -0.110000	    0.210000	   24.285156
   11.7472	 -0.001500	  0.025500	  1.008000	   -0.270000	    0.000000	    0.230000	   24.269531
   11.7572	 -0.000500	  0.025000	  1.007500	   -0.230000	   -0.080000	    0.190000	   24.246094
   11.7672	 -0.002000	  0.026000	  1.008000	   -0.390000	   -0.060000	    0.270000	   24.250000
   11.7772	 -0.002000	  0.024500	  1.008500	   -0.410000	   -0.060000	    0.250000	   24.261719
   11.7872	 -0.002000	  0.025500	  1.007000	   -0.240000	   -0.120000	    0.290000	   24.261719
   11.7972	 -0.002500	  0.026000	  1.007500	   -0.370000	   -0.270000	    0.300000	   24.289063
   11.8072	 -0.002000	  0.025500	  1.008000	   -0.450000	   -0.150000	    0.410000	   24.304688
   11.8172	 -0.001500	  0.025500	  1.007000	   -0.410000	   -0.180000	    0.250000	   24.292969
   11.8272	 -0.001000	  0.025000	  1.007500	   -0.400000	   -0.080000	    0.210000	   24.281250
   11.8372	 -0.001500	  0.025500	  1.007500	   -0.350000	   -0.030000	    0.290000	   24.273438
   11.8472	 -0.001000	  0.025000	  1.007000	   -0.440000	   -0.190000	    0.140000	   24.281250
   11.8572	 -0.001500	  0.026000	  1.008000	   -0.430000	   -0.140000	    0.270000	   24.285156
   11.8672	 -0.001000	  0.024500	  1.008500	   -0.400000	   -0.200000	    0.220000	   24.273438
   11.8772	 -0.001500	  0.025000	  1.009000	   -0.430000	   -0.080000	    0.290000	   24.253906
   11.8872	 -0.001000	  0.025000	  1.007500	   -0.340000	   -0.130000	    0.230000	   24.273438
   11.8972	 -0.001500	  0.027000	  1.007500	   -0.250000	    0.020000	    0.260000	   24.285156
   11.9072	 -0.001000	  0.025000	  1.006500	   -0.260000	   -0.120000	    0.300000	   24.292969
   11.9172	 -0.001500	  0.025500	  1.008000	   -0.310000	   -0.150000	    0.300000	   24.281250
   11.9272	 -0.002000	  0.024500	  1.007500	   -0.460000	   -0.110000	    0.230000	   24.257813
   11.9372	 -0.001500	  0.024000	  1.008000	   -0.390000	   -0.130000	    0.260000	   24.253906
   11.9472	 -0.000500	  0.025500	  1.007500	   -0.350000	   -0.210000	    0.220000	   24.261719
   11.9572	 -0.002000	  0.025500	  1.007000	   -0.410000	   -0.130000	    0.150000	   24.253906
   11.9672	 -0.002500	  0.025500	  1.008000	   -0.360000	   -0.020000	    0.220000	   24.234375
   11.9772	 -0.001500	  0.024500	  1.008000	   -0.520000	   -0.160000	    0.270000	   24.265625
   11.9872	 -0.001500	  0.025500	  1.006500	   -0.330000	   -0.110000	    0.250000	   24.277344
   11.9972	 -0.001000	  0.023000	  1.008000	   -0.380000	   -0.130000	    0.260000	   24.257813
   12.0072	 -0.000500	  0.026000	  1.007500	   -0.330000	   -0.050000	    0.200000	   24.261719
   12.0172	 -0.000500	  0.025500	  1.006500	   -0.400000	   -0.120000	    0.280000	   24.261719
   12.0272	 -0.001500	  0.025500	  1.008000	   -0.380000	   -0.090000	    0.250000	   24.253906
   12.0372	 -0.001000	  0.025500	  1.008500	   -0.320000	   -0.210000	    0.270000	   24.292969
   12.0472	 -0.001000	  0.025000	  1.007000	   -0.400000	   -0.160000	    0.360000	   24.312500
   12.0572	 -0.001500	  0.026500	  1.008500	   -0.390000	   -0.150000	    0.330000	   24.281250
   12.0672	 -0.001500	  0.025000	  1.007000	   -0.500000	   -0.080000	    0.210000	   24.269531
   12.0776	 -0.000500	  0.025500	  1.006500	   -0.470000	   -0.290000	    0.240000	   24.257813
   12.0872	 -0.002500	  0.025000	  1.008500	   -0.380000	   -0.100000	    0.360000	   24.257813
   12.0972	 -0.002000	  0.024000	  1.006500	   -0.370000	   -0.040000	    0.230000	   24.273438
   12.1072	 -0.001000	  0.025500	  1.007500	   -0.540000	   -0.140000	    0.300000	   24.269531
   12.1172	 -0.001500	  0.024500	  1.008500	   -0.340000	   -0.110000	    0.230000	   24.261719
   12.1272	 -0.001500	  0.024500	  1.008000	   -0.280000	   -0.160000	    0.180000	   24.289063
   12.1372	 -0.002000	  0.025000	  1.008500	   -0.320000	   -0.270000	    0.250000	   24.292969
   12.1472	 -0.000500	  0.025000	  1.006500	   -0.340000	   -0.160000	    0.250000	   24.269531
   12.1572	 -0.001500	  0.025000	  1.007500	   -0.360000	   -0.240000	    0.180000	   24.277344
   12.1672	 -0.000500	  0.025500	  1.007000	   -0.500000	   -0.190000	    0.280000	   24.281250
   12.1772	  0.000000	  0.024000	  1.008500	   -0.400000	   -0.080000	    0.320000	   24.281250
   12.1872	 -0.000500	  0.025500	  1.006500	   -0.380000	   -0.130000	    0.240000	   24.277344
   12.1972	 -0.000500	  0.026500	  1.007500	   -0.310000	   -0.060000	    0.250000	   24.238281
   12.2072	  0.000500	  0.025000	  1.008500	   -0.310000	   -0.150000	    0.210000	   24.253906
   12.2172	  0.000000	  0.026000	  1.007000	   -0.380000	   -0.150000	    0.260000	   24.257813
   12.2272	 -0.000500	  0.025500	  1.007000	   -0.330000	   -0.230000	    0.260000	   24.253906
   12.2372	 -0.000500	  0.026000	  1.009500	   -0.260000	   -0.170000	    0.240000	   24.281250
   12.2472	 -0.001000	  0.025500	  1.007000	   -0.360000	   -0.100000	    0.240000	   24.277344
   12.2572	 -0.001000	  0.024000	  1.007500	   -0.570000	   -0.190000	    0.150000	   24.265625
   12.2672	 -0.001000	  0.025000	  1.009000	   -0.340000	   -0.130000	    0.270000	   24.281250
   12.2772	 -0.002000	  0.024000	  1.008500	   -0.270000	   -0.220000	    0.330000	   24.253906
   12.2872	 -0.001500	  0.025500	  1.007500	   -0.420000	   -0.080000	    0.220000	   24.289063
   12.2972	 -0.000500	  0.026000	  1.008000	   -0.390000	   -0.060000	    0.210000	   24.285156
   12.3072	 -0.001000	  0.025000	  1.006500	   -0.420000	   -0.060000	    0.280000	   24.269531
   12.3172	 -0.001500	  0.024500	  1.008000	   -0.440000	   -0.240000	    0.320000	   24.277344
   12.3272	 -0.001000	  0.024500	  1.008500	   -0.370000	   -0.120000	    0.170000	   24.269531
   12.3372	  0.000000	  0.026000	  1.006500	   -0.370000	   -0.040000	    0.230000	   24.269531
   12.3472	 -0.001500	  0.025500	  1.008500	   -0.360000	   -0.090000	    0.320000	   24.246094
   12.3572	 -0.001500	  0.024500	  1.007000	   -0.390000	   -0.050000	    0.250000	   24.273438
   12.3672	 -0.001500	  0.025000	  1.007000	   -0.410000	   -0.140000	    0.200000	   24.281250
   12.3772	 -0.000500	  0.025500	  1.007500	   -0.320000	   -0.090000	    0.180000	   24.285156
   12.3872	 -0.000500	  0.025000	  1.008000	   -0.310000	   -0.120000	    0.190000	   24.281250
   12.3972	 -0.001500	  0.025000	  1.007000	   -0.320000	   -0.050000	    0.320000	   24.277344
   12.4072	 -0.001000	  0.026000	  1.009000	   -0.330000	   -0.080000	    0.290000	   24.292969
   12.4173	  0.000000	  0.025000	  1.007000	   -0.430000	   -0.090000	    0.170000	   24.300781
   12.4272	 -0.002000	  0.026000	  1.007000	   -0.320000	   -0.210000	    0.240000	   24.289063
   12.4372	 -0.001500	  0.025000	  1.008000	   -0.430000	   -0.280000	    0.200000	   24.269531
   12.4472	 -0.001000	  0.025500	  1.008500	   -0.300000	   -0.290000	    0.340000	   24.242188
   12.4572	 -0.001500	  0.025500	  1.007500	   -0.480000	   -0.060000	    0.300000	   24.261719
   12.4672	 -0.001500	  0.025000	  1.008500	   -0.420000	   -0.090000	    0.170000	   24.269531
   12.4772	 -0.002500	  0.026000	  1.008000	   -0.470000	   -0.180000	    0.310000	   24.296875
   12.4872	 -0.000500	  0.025500	  1.008500	   -0.390000	   -0.210000	    0.200000	   24.289063
   12.4972	 -0.001000	  0.025500	  1.007500	   -0.310000	   -0.140000	    0.230000	   24.285156
   12.5072	 -0.001500	  0.025000	  1.007000	   -0.320000	   -0.060000	    0.230000	   24.269531
   12.5173	 -0.002000	  0.025500	  1.007500	   -0.480000	   -0.110000	    0.270000	   24.269531
   12.5272	 -0.001500	  0.026500	  1.005500	   -0.450000	   -0.040000	    0.230000	   24.265625
   12.5372	 -0.001500	  0.026500	  1.007500	   -0.370000	   -0.220000	    0.270000	   24.253906
   12.5472	 -0.002500	  0.025000	  1.008500	   -0.400000	   -0.100000	    0.230000	   24.257813
   12.5572	 -0.001500	  0.025500	  1.007000	   -0.340000	   -0.040000	    0.250000	   24.250000
   12.5672	 -0.001500	  0.025500	  1.007500	   -0.380000	   -0.220000	    0.250000	   24.246094
   12.5772	 -0.001000	  0.025500	  1.007000	   -0.360000	   -0.330000	    0.230000	   24.273438
   12.5872	 -0.002500	  0.024500	  1.008000	   -0.440000	   -0.190000	    0.360000	   24.265625
   12.5972	 -0.002000	  0.025500	  1.007000	   -0.500000	   -0.020000	    0.300000	   24.277344
