ï»¿Time_s    	AccX_g    	AccY_g    	AccZ_g    	GyroX_degs  	GyroY_degs  	GyroZ_degs  	IMU_Temperature
    0.0703	 -0.002000	  0.026500	  1.006500	   -0.290000	   -0.200000	    0.320000	   24.812500
    0.0728	  0.000000	  0.026500	  1.008000	   -0.390000	   -0.250000	    0.330000	   24.804688
    0.0753	 -0.001000	  0.027500	  1.006000	   -0.240000	   -0.130000	    0.280000	   24.792969
    0.0777	 -0.001500	  0.027000	  1.008000	   -0.390000	   -0.230000	    0.280000	   24.789063
    0.0812	 -0.000500	  0.027000	  1.007500	   -0.300000	   -0.070000	    0.230000	   24.792969
    0.0912	 -0.001500	  0.027500	  1.007500	   -0.370000	   -0.100000	    0.270000	   24.808594
    0.1012	 -0.002000	  0.027500	  1.007500	   -0.340000	   -0.190000	    0.320000	   24.816406
    0.1112	 -0.001500	  0.026500	  1.007500	   -0.360000	   -0.180000	    0.300000	   24.824219
    0.1212	 -0.001500	  0.027500	  1.007500	   -0.320000	   -0.140000	    0.210000	   24.804688
    0.1312	 -0.002000	  0.027000	  1.007000	   -0.380000	   -0.120000	    0.260000	   24.816406
    0.1412	 -0.002500	  0.026000	  1.008500	   -0.410000	    0.040000	    0.100000	   24.820313
    0.1512	 -0.001500	  0.028500	  1.007500	   -0.390000	   -0.130000	    0.310000	   24.808594
    0.1612	 -0.002500	  0.027500	  1.008000	   -0.320000	   -0.120000	    0.170000	   24.812500
    0.1712	 -0.002500	  0.026000	  1.007000	   -0.320000	   -0.020000	    0.200000	   24.808594
    0.1812	 -0.002000	  0.027000	  1.008000	   -0.350000	   -0.130000	    0.200000	   24.796875
    0.1912	 -0.001000	  0.027000	  1.007500	   -0.590000	   -0.020000	    0.400000	   24.792969
    0.2012	 -0.003000	  0.026000	  1.007000	   -0.340000	   -0.200000	    0.180000	   24.800781
    0.2112	 -0.002000	  0.027000	  1.006000	   -0.260000	   -0.030000	    0.200000	   24.789063
    0.2212	 -0.003000	  0.027500	  1.007000	   -0.230000	   -0.110000	    0.330000	   24.800781
    0.2312	 -0.002000	  0.028000	  1.007000	   -0.300000	   -0.120000	    0.230000	   24.796875
    0.2412	 -0.002000	  0.028000	  1.007000	   -0.400000	   -0.090000	    0.220000	   24.835938
    0.2512	 -0.003000	  0.026500	  1.007500	   -0.280000	   -0.070000	    0.210000	   24.808594
    0.2612	 -0.002000	  0.027000	  1.006500	   -0.340000	   -0.090000	    0.190000	   24.785156
    0.2712	 -0.002500	  0.027500	  1.006000	   -0.310000	   -0.140000	    0.210000	   24.761719
    0.2812	 -0.003000	  0.027500	  1.006500	   -0.370000	   -0.120000	    0.330000	   24.785156
    0.2912	 -0.002000	  0.026500	  1.007000	   -0.350000	   -0.070000	    0.190000	   24.800781
    0.3012	 -0.002500	  0.026500	  1.006000	   -0.380000	   -0.190000	    0.260000	   24.777344
    0.3112	 -0.003500	  0.028000	  1.007000	   -0.380000	   -0.210000	    0.230000	   24.789063
    0.3212	 -0.002500	  0.027000	  1.006500	   -0.410000	   -0.200000	    0.220000	   24.800781
    0.3312	 -0.004500	  0.027000	  1.006000	   -0.320000	   -0.270000	    0.320000	   24.804688
    0.3412	 -0.002500	  0.026500	  1.007500	   -0.300000	   -0.040000	    0.270000	   24.808594
    0.3512	 -0.002000	  0.026500	  1.006500	   -0.290000	   -0.060000	    0.270000	   24.796875
    0.3612	 -0.003000	  0.027500	  1.007000	   -0.390000	   -0.130000	    0.330000	   24.769531
    0.3712	 -0.003000	  0.027000	  1.007000	   -0.280000	    0.040000	    0.230000	   24.800781
    0.3812	 -0.001500	  0.028000	  1.005500	   -0.440000	    0.020000	    0.220000	   24.816406
    0.3912	 -0.002500	  0.027000	  1.007500	   -0.360000	   -0.200000	    0.320000	   24.808594
    0.4012	 -0.003500	  0.026500	  1.007000	   -0.400000	   -0.240000	    0.270000	   24.808594
    0.4112	 -0.002000	  0.027000	  1.006500	   -0.310000	   -0.270000	    0.260000	   24.808594
    0.4212	 -0.002500	  0.026500	  1.007500	   -0.430000	   -0.150000	    0.220000	   24.812500
    0.4312	 -0.003500	  0.028000	  1.008000	   -0.410000	   -0.140000	    0.350000	   24.812500
    0.4412	 -0.003500	  0.027000	  1.007000	   -0.510000	   -0.240000	    0.280000	   24.812500
    0.4512	 -0.003000	  0.027000	  1.007500	   -0.330000	   -0.210000	    0.130000	   24.832031
    0.4612	 -0.003500	  0.026500	  1.007500	   -0.540000	   -0.070000	    0.220000	   24.796875
    0.4712	 -0.003500	  0.028000	  1.006500	   -0.410000	   -0.090000	    0.210000	   24.789063
    0.4812	 -0.003500	  0.026500	  1.007500	   -0.340000	   -0.170000	    0.200000	   24.792969
    0.4912	 -0.003500	  0.027500	  1.006000	   -0.490000	   -0.160000	    0.220000	   24.781250
    0.5012	 -0.004500	  0.026000	  1.007000	   -0.360000	   -0.070000	    0.180000	   24.800781
    0.5112	 -0.003000	  0.026500	  1.006500	   -0.330000	   -0.230000	    0.280000	   24.792969
    0.5212	 -0.004000	  0.027500	  1.006500	   -0.270000	   -0.040000	    0.270000	   24.804688
    0.5312	 -0.003000	  0.026500	  1.006000	   -0.390000	   -0.200000	    0.250000	   24.808594
    0.5412	 -0.003000	  0.027000	  1.007500	   -0.300000	   -0.160000	    0.160000	   24.789063
    0.5512	 -0.003000	  0.027500	  1.006000	   -0.460000	   -0.120000	    0.340000	   24.792969
    0.5612	 -0.003500	  0.028000	  1.006500	   -0.210000	   -0.080000	    0.170000	   24.796875
    0.5712	 -0.003500	  0.027500	  1.008000	   -0.330000	   -0.190000	    0.320000	   24.800781
    0.5812	 -0.002500	  0.028000	  1.007000	   -0.390000	   -0.130000	    0.270000	   24.796875
    0.5912	 -0.001500	  0.027000	  1.006000	   -0.370000	   -0.100000	    0.290000	   24.777344
    0.6012	 -0.002500	  0.027500	  1.007000	   -0.360000	   -0.130000	    0.270000	   24.781250
    0.6112	 -0.001500	  0.028000	  1.005500	   -0.350000	   -0.150000	    0.200000	   24.800781
    0.6212	  0.000000	  0.027000	  1.006500	   -0.400000	   -0.280000	    0.310000	   24.796875
    0.6312	 -0.001500	  0.028500	  1.008000	   -0.500000	   -0.170000	    0.250000	   24.792969
    0.6412	 -0.000500	  0.027000	  1.007000	   -0.380000	   -0.180000	    0.270000	   24.789063
    0.6512	 -0.002000	  0.026500	  1.008500	   -0.400000	   -0.280000	    0.150000	   24.781250
    0.6612	 -0.003000	  0.027000	  1.007000	   -0.270000	   -0.090000	    0.200000	   24.792969
    0.6712	 -0.003500	  0.027500	  1.007500	   -0.340000	   -0.250000	    0.260000	   24.796875
    0.6812	 -0.003500	  0.025500	  1.007500	   -0.290000	   -0.250000	    0.340000	   24.757813
    0.6912	 -0.003500	  0.027000	  1.006500	   -0.420000	   -0.040000	    0.230000	   24.792969
    0.7012	 -0.003000	  0.026500	  1.007500	   -0.500000	   -0.130000	    0.380000	   24.824219
    0.7112	 -0.003000	  0.027000	  1.007000	   -0.450000	   -0.220000	    0.340000	   24.824219
    0.7212	 -0.003500	  0.028000	  1.006000	   -0.260000	   -0.240000	    0.260000	   24.816406
    0.7312	 -0.003500	  0.029000	  1.007000	   -0.460000	   -0.150000	    0.320000	   24.812500
    0.7412	 -0.002500	  0.026500	  1.006500	   -0.340000	    0.000000	    0.210000	   24.808594
    0.7512	 -0.003000	  0.028000	  1.006500	   -0.360000	   -0.070000	    0.280000	   24.808594
    0.7612	 -0.004000	  0.027500	  1.006500	   -0.350000	   -0.070000	    0.190000	   24.800781
    0.7712	 -0.002000	  0.027000	  1.006000	   -0.410000	   -0.130000	    0.290000	   24.800781
    0.7812	 -0.002500	  0.028500	  1.007000	   -0.490000	   -0.130000	    0.280000	   24.800781
    0.7912	 -0.003500	  0.027500	  1.006500	   -0.440000	   -0.090000	    0.260000	   24.812500
    0.8012	 -0.001500	  0.028500	  1.006500	   -0.470000	   -0.330000	    0.240000	   24.800781
    0.8112	 -0.002500	  0.028000	  1.008000	   -0.470000	   -0.200000	    0.340000	   24.816406
    0.8212	 -0.001500	  0.025500	  1.007500	   -0.440000	   -0.180000	    0.220000	   24.808594
    0.8312	 -0.002500	  0.027000	  1.005500	   -0.310000	   -0.110000	    0.150000	   24.816406
    0.8412	 -0.002500	  0.027500	  1.008000	   -0.440000	   -0.110000	    0.280000	   24.832031
    0.8512	 -0.003000	  0.027500	  1.007000	   -0.390000	   -0.210000	    0.250000	   24.808594
    0.8612	 -0.002500	  0.028000	  1.007000	   -0.310000	   -0.080000	    0.220000	   24.804688
    0.8712	 -0.002500	  0.027000	  1.008000	   -0.460000	   -0.150000	    0.230000	   24.785156
    0.8812	 -0.003000	  0.026500	  1.008500	   -0.390000	   -0.080000	    0.270000	   24.792969
    0.8912	 -0.003500	  0.026500	  1.007000	   -0.370000	   -0.120000	    0.200000	   24.792969
    0.9012	 -0.002500	  0.026000	  1.007000	   -0.340000	   -0.110000	    0.250000	   24.816406
    0.9112	 -0.002500	  0.027000	  1.008000	   -0.410000	   -0.170000	    0.220000	   24.816406
    0.9212	 -0.002000	  0.027500	  1.006500	   -0.390000	   -0.120000	    0.260000	   24.812500
    0.9316	 -0.002500	  0.026500	  1.006500	   -0.240000	   -0.030000	    0.170000	   24.808594
    0.9412	 -0.003500	  0.026500	  1.006000	   -0.360000	   -0.050000	    0.320000	   24.832031
    0.9512	 -0.002000	  0.027000	  1.006000	   -0.270000	   -0.120000	    0.370000	   24.832031
    0.9612	 -0.003000	  0.027000	  1.006500	   -0.400000	   -0.180000	    0.290000	   24.824219
    0.9713	 -0.002500	  0.027000	  1.008000	   -0.400000	   -0.150000	    0.250000	   24.781250
    0.9812	 -0.001500	  0.027000	  1.006500	   -0.480000	   -0.240000	    0.220000	   24.785156
    0.9912	 -0.002000	  0.027500	  1.005500	   -0.400000	   -0.140000	    0.200000	   24.808594
    1.0012	 -0.002000	  0.027500	  1.006500	   -0.370000	   -0.190000	    0.180000	   24.804688
    1.0112	 -0.001000	  0.028000	  1.005500	   -0.370000	   -0.090000	    0.250000	   24.792969
    1.0212	 -0.001500	  0.027500	  1.007500	   -0.410000	   -0.160000	    0.180000	   24.816406
    1.0312	 -0.001500	  0.027000	  1.006500	   -0.300000	   -0.200000	    0.190000	   24.796875
    1.0412	 -0.003500	  0.028000	  1.006500	   -0.420000	   -0.180000	    0.290000	   24.792969
    1.0512	 -0.002000	  0.026000	  1.007000	   -0.340000	   -0.250000	    0.320000	   24.800781
    1.0612	 -0.002000	  0.027500	  1.005500	   -0.410000	   -0.180000	    0.230000	   24.824219
    1.0713	 -0.002000	  0.027500	  1.008000	   -0.390000	   -0.270000	    0.260000	   24.816406
    1.0812	 -0.002500	  0.026500	  1.008000	   -0.360000	   -0.220000	    0.350000	   24.792969
    1.0912	 -0.002500	  0.028000	  1.006000	   -0.370000	   -0.130000	    0.230000	   24.812500
    1.1012	 -0.002500	  0.026000	  1.006500	   -0.370000	   -0.140000	    0.220000	   24.792969
    1.1112	 -0.002500	  0.027000	  1.008000	   -0.430000	   -0.160000	    0.260000	   24.792969
    1.1212	 -0.002500	  0.028000	  1.007500	   -0.270000	    0.070000	    0.090000	   24.800781
    1.1312	 -0.003000	  0.029000	  1.007000	   -0.280000	   -0.170000	    0.320000	   24.816406
    1.1412	 -0.002000	  0.026500	  1.007000	   -0.320000	   -0.010000	    0.260000	   24.820313
    1.1512	 -0.003000	  0.028000	  1.007000	   -0.380000	   -0.130000	    0.230000	   24.812500
    1.1612	 -0.002000	  0.026500	  1.007000	   -0.330000	   -0.200000	    0.250000	   24.812500
    1.1713	 -0.002000	  0.026500	  1.007000	   -0.380000	   -0.140000	    0.310000	   24.796875
    1.1812	 -0.002500	  0.027500	  1.007500	   -0.420000	   -0.140000	    0.320000	   24.812500
    1.1912	 -0.003500	  0.027500	  1.007000	   -0.310000	   -0.160000	    0.140000	   24.820313
    1.2012	 -0.003500	  0.027000	  1.007000	   -0.430000	   -0.120000	    0.190000	   24.812500
    1.2112	 -0.002500	  0.026500	  1.005500	   -0.350000	   -0.170000	    0.220000	   24.808594
    1.2212	 -0.003000	  0.028500	  1.007000	   -0.330000	   -0.150000	    0.280000	   24.828125
    1.2312	 -0.003000	  0.027000	  1.006500	   -0.460000	   -0.130000	    0.150000	   24.828125
    1.2412	 -0.003000	  0.027500	  1.005500	   -0.420000	   -0.170000	    0.330000	   24.828125
    1.2512	 -0.002000	  0.028000	  1.007000	   -0.370000	   -0.150000	    0.330000	   24.824219
    1.2612	 -0.002500	  0.027500	  1.007000	   -0.350000	   -0.220000	    0.240000	   24.796875
    1.2713	 -0.002500	  0.027500	  1.006500	   -0.340000	   -0.120000	    0.220000	   24.792969
    1.2812	 -0.003000	  0.026500	  1.007500	   -0.520000	   -0.200000	    0.250000	   24.789063
    1.2912	 -0.003000	  0.027500	  1.006500	   -0.280000	   -0.050000	    0.230000	   24.796875
    1.3012	 -0.003500	  0.027000	  1.007000	   -0.260000	   -0.040000	    0.220000	   24.789063
    1.3112	 -0.003500	  0.027000	  1.007500	   -0.260000	   -0.250000	    0.210000	   24.757813
    1.3212	 -0.002000	  0.028000	  1.008500	   -0.350000	   -0.220000	    0.200000	   24.777344
    1.3313	 -0.002000	  0.027500	  1.006500	   -0.420000	   -0.100000	    0.310000	   24.789063
    1.3412	 -0.002500	  0.027500	  1.007500	   -0.290000	   -0.160000	    0.290000	   24.785156
    1.3512	 -0.002500	  0.027500	  1.007500	   -0.340000	   -0.150000	    0.300000	   24.792969
    1.3612	 -0.001000	  0.027000	  1.006500	   -0.470000	   -0.140000	    0.330000	   24.804688
    1.3713	 -0.001500	  0.026500	  1.006000	   -0.440000	   -0.250000	    0.210000	   24.781250
    1.3812	 -0.002500	  0.027500	  1.007000	   -0.430000	   -0.140000	    0.210000	   24.785156
    1.3912	 -0.002000	  0.027000	  1.007500	   -0.440000	   -0.050000	    0.160000	   24.781250
    1.4012	 -0.003500	  0.026500	  1.007500	   -0.420000	   -0.330000	    0.250000	   24.792969
    1.4113	 -0.004000	  0.028000	  1.009000	   -0.380000	   -0.080000	    0.250000	   24.832031
    1.4212	 -0.002500	  0.027500	  1.006500	   -0.470000	   -0.070000	    0.330000	   24.816406
    1.4313	 -0.003000	  0.028000	  1.008500	   -0.420000	   -0.230000	    0.220000	   24.789063
    1.4412	 -0.002500	  0.027000	  1.006500	   -0.340000	   -0.150000	    0.210000	   24.812500
    1.4512	 -0.002000	  0.027500	  1.007000	   -0.350000	   -0.250000	    0.200000	   24.796875
    1.4612	 -0.001500	  0.026500	  1.005500	   -0.410000	   -0.140000	    0.260000	   24.792969
    1.4713	 -0.002500	  0.026000	  1.006500	   -0.360000	   -0.260000	    0.240000	   24.777344
    1.4813	 -0.002000	  0.027000	  1.007000	   -0.390000	   -0.210000	    0.310000	   24.781250
    1.4912	 -0.001500	  0.027500	  1.006500	   -0.300000	   -0.090000	    0.320000	   24.808594
    1.5012	 -0.003000	  0.027500	  1.007500	   -0.420000	   -0.130000	    0.190000	   24.824219
    1.5112	 -0.002500	  0.028000	  1.006500	   -0.510000	   -0.200000	    0.260000	   24.804688
    1.5212	 -0.002500	  0.027000	  1.006500	   -0.320000	   -0.050000	    0.300000	   24.816406
    1.5313	 -0.002500	  0.026000	  1.006500	   -0.280000	   -0.010000	    0.230000	   24.792969
    1.5413	 -0.003000	  0.027500	  1.008000	   -0.330000	   -0.120000	    0.240000	   24.804688
    1.5512	 -0.003500	  0.028000	  1.007000	   -0.400000	   -0.160000	    0.270000	   24.792969
    1.5613	 -0.003000	  0.028000	  1.007000	   -0.390000	   -0.280000	    0.240000	   24.792969
    1.5713	 -0.002500	  0.026500	  1.006000	   -0.520000	   -0.210000	    0.240000	   24.796875
    1.5813	 -0.002000	  0.026500	  1.008000	   -0.310000	   -0.140000	    0.270000	   24.781250
    1.5913	 -0.002500	  0.028000	  1.006500	   -0.290000	   -0.100000	    0.260000	   24.789063
    1.6013	 -0.002500	  0.027500	  1.007500	   -0.400000	   -0.190000	    0.220000	   24.800781
    1.6113	 -0.001500	  0.028000	  1.005500	   -0.420000	   -0.280000	    0.350000	   24.804688
    1.6213	 -0.002500	  0.027000	  1.008500	   -0.430000	   -0.220000	    0.230000	   24.808594
    1.6313	 -0.003000	  0.027000	  1.006000	   -0.400000	   -0.200000	    0.190000	   24.804688
    1.6413	 -0.002500	  0.026500	  1.006500	   -0.440000	   -0.110000	    0.200000	   24.812500
    1.6513	 -0.002000	  0.028000	  1.009000	   -0.370000	   -0.040000	    0.240000	   24.812500
    1.6613	 -0.003500	  0.027000	  1.007000	   -0.320000	   -0.240000	    0.130000	   24.808594
    1.6713	 -0.004500	  0.028000	  1.006500	   -0.330000	   -0.050000	    0.280000	   24.820313
    1.6813	 -0.004500	  0.026500	  1.007500	   -0.530000	   -0.140000	    0.230000	   24.820313
    1.6913	 -0.003500	  0.026500	  1.006000	   -0.270000	   -0.080000	    0.280000	   24.812500
    1.7013	 -0.003000	  0.026000	  1.006500	   -0.380000	   -0.130000	    0.190000	   24.824219
    1.7113	 -0.002500	  0.027500	  1.007500	   -0.380000	   -0.020000	    0.210000	   24.804688
    1.7213	 -0.002500	  0.028000	  1.004500	   -0.370000	   -0.220000	    0.280000	   24.812500
    1.7313	 -0.003500	  0.027000	  1.007500	   -0.380000	   -0.090000	    0.300000	   24.785156
    1.7413	 -0.002000	  0.027000	  1.006500	   -0.310000	   -0.190000	    0.230000	   24.804688
    1.7513	 -0.003500	  0.028500	  1.005500	   -0.460000	   -0.180000	    0.260000	   24.804688
    1.7613	 -0.004000	  0.028500	  1.007500	   -0.340000	   -0.080000	    0.390000	   24.789063
    1.7713	 -0.003500	  0.027500	  1.007500	   -0.300000	   -0.110000	    0.120000	   24.796875
    1.7813	 -0.003000	  0.028000	  1.006500	   -0.230000	   -0.200000	    0.150000	   24.789063
    1.7913	 -0.004000	  0.028000	  1.006000	   -0.310000	   -0.150000	    0.270000	   24.804688
    1.8013	 -0.003500	  0.027000	  1.005500	   -0.500000	   -0.230000	    0.210000	   24.812500
    1.8113	 -0.003000	  0.027000	  1.006000	   -0.410000	   -0.180000	    0.300000	   24.804688
    1.8213	 -0.002500	  0.027500	  1.006000	   -0.380000	   -0.180000	    0.330000	   24.796875
    1.8313	 -0.003500	  0.028000	  1.006500	   -0.470000	   -0.220000	    0.330000	   24.781250
    1.8413	 -0.003000	  0.029000	  1.006500	   -0.320000	   -0.220000	    0.270000	   24.777344
    1.8513	 -0.002000	  0.028000	  1.007500	   -0.350000	   -0.230000	    0.170000	   24.800781
    1.8613	 -0.003000	  0.027000	  1.006500	   -0.300000	   -0.270000	    0.140000	   24.808594
    1.8713	 -0.003000	  0.027500	  1.006500	   -0.430000	   -0.010000	    0.260000	   24.820313
    1.8813	 -0.003000	  0.027000	  1.006500	   -0.290000	   -0.090000	    0.200000	   24.804688
    1.8913	 -0.003000	  0.027500	  1.005500	   -0.500000	   -0.250000	    0.310000	   24.792969
    1.9013	 -0.002500	  0.027000	  1.007000	   -0.390000	   -0.140000	    0.300000	   24.773438
    1.9113	 -0.001500	  0.028000	  1.006500	   -0.370000	   -0.060000	    0.160000	   24.789063
    1.9213	 -0.003000	  0.027500	  1.006000	   -0.310000	   -0.250000	    0.310000	   24.792969
    1.9317	 -0.004000	  0.026000	  1.007000	   -0.410000	   -0.180000	    0.260000	   24.796875
    1.9413	 -0.002500	  0.026000	  1.006000	   -0.330000	   -0.220000	    0.220000	   24.781250
    1.9513	 -0.002000	  0.027500	  1.007500	   -0.270000	   -0.170000	    0.280000	   24.789063
    1.9613	 -0.003000	  0.027500	  1.007000	   -0.460000	   -0.270000	    0.370000	   24.769531
    1.9713	 -0.002000	  0.026500	  1.007500	   -0.360000	   -0.130000	    0.230000	   24.785156
    1.9813	 -0.002500	  0.027000	  1.006500	   -0.310000	   -0.170000	    0.260000	   24.812500
    1.9913	 -0.003000	  0.026500	  1.006000	   -0.250000	   -0.060000	    0.240000	   24.804688
    2.0013	 -0.002500	  0.026500	  1.006500	   -0.430000	   -0.230000	    0.250000	   24.796875
    2.0113	 -0.002000	  0.026500	  1.007000	   -0.390000	   -0.150000	    0.110000	   24.832031
    2.0213	 -0.002500	  0.026500	  1.007000	   -0.510000	   -0.260000	    0.400000	   24.800781
    2.0313	 -0.003000	  0.027000	  1.006000	   -0.410000	   -0.270000	    0.260000	   24.800781
    2.0413	 -0.002500	  0.027000	  1.007500	   -0.320000	   -0.130000	    0.190000	   24.804688
    2.0513	 -0.002500	  0.028000	  1.006500	   -0.390000	   -0.250000	    0.190000	   24.804688
    2.0613	 -0.003000	  0.026500	  1.007000	   -0.400000	   -0.270000	    0.200000	   24.804688
    2.0713	 -0.003000	  0.026500	  1.007500	   -0.370000	   -0.120000	    0.190000	   24.789063
    2.0813	 -0.001500	  0.026500	  1.006500	   -0.350000	   -0.130000	    0.200000	   24.800781
    2.0913	 -0.002000	  0.027500	  1.006500	   -0.460000	   -0.090000	    0.260000	   24.792969
    2.1013	 -0.001000	  0.026000	  1.007500	   -0.350000	   -0.170000	    0.310000	   24.789063
    2.1113	 -0.002000	  0.028500	  1.006000	   -0.360000	   -0.160000	    0.210000	   24.808594
    2.1213	 -0.001000	  0.026000	  1.006500	   -0.380000	   -0.210000	    0.250000	   24.808594
    2.1313	 -0.002000	  0.028000	  1.006500	   -0.430000	   -0.300000	    0.390000	   24.792969
    2.1413	 -0.000500	  0.028000	  1.007500	   -0.390000	   -0.180000	    0.340000	   24.792969
    2.1513	 -0.001500	  0.027000	  1.007500	   -0.370000	   -0.210000	    0.090000	   24.816406
    2.1613	 -0.002000	  0.026000	  1.006500	   -0.300000	   -0.280000	    0.380000	   24.804688
    2.1713	 -0.000500	  0.027500	  1.008000	   -0.360000	   -0.100000	    0.170000	   24.785156
    2.1813	 -0.001500	  0.027000	  1.006500	   -0.270000	   -0.220000	    0.230000	   24.820313
    2.1913	 -0.002000	  0.027000	  1.008000	   -0.360000	   -0.140000	    0.210000	   24.808594
    2.2013	 -0.002500	  0.028000	  1.006500	   -0.500000	   -0.070000	    0.220000	   24.796875
    2.2113	 -0.001000	  0.027000	  1.010000	   -0.320000	   -0.140000	    0.330000	   24.804688
    2.2213	 -0.000500	  0.027000	  1.007500	   -0.310000	   -0.150000	    0.360000	   24.812500
    2.2313	 -0.001000	  0.028000	  1.006500	   -0.460000	   -0.130000	    0.170000	   24.812500
    2.2413	 -0.002000	  0.026000	  1.008000	   -0.440000	   -0.240000	    0.210000	   24.808594
    2.2513	 -0.001500	  0.026500	  1.007500	   -0.360000	   -0.220000	    0.240000	   24.781250
    2.2613	 -0.001500	  0.027000	  1.007000	   -0.500000	   -0.190000	    0.270000	   24.789063
    2.2713	 -0.001500	  0.027000	  1.007000	   -0.330000	   -0.110000	    0.210000	   24.773438
    2.2813	 -0.000500	  0.027000	  1.007500	   -0.340000	   -0.140000	    0.240000	   24.769531
    2.2913	 -0.002500	  0.026000	  1.006000	   -0.440000	   -0.150000	    0.270000	   24.765625
    2.3013	 -0.002000	  0.027500	  1.007500	   -0.300000	   -0.150000	    0.300000	   24.792969
    2.3113	 -0.001500	  0.026500	  1.008000	   -0.430000	   -0.220000	    0.240000	   24.796875
    2.3213	 -0.001500	  0.028000	  1.007000	   -0.400000	   -0.070000	    0.220000	   24.812500
    2.3313	 -0.003000	  0.028000	  1.007000	   -0.350000	   -0.110000	    0.240000	   24.812500
    2.3413	 -0.001000	  0.027500	  1.007500	   -0.350000	   -0.130000	    0.300000	   24.789063
    2.3513	 -0.001000	  0.027000	  1.009500	   -0.330000	   -0.130000	    0.130000	   24.765625
    2.3613	 -0.001500	  0.025500	  1.009000	   -0.320000	   -0.050000	    0.290000	   24.792969
    2.3713	 -0.001500	  0.027500	  1.007500	   -0.290000	   -0.020000	    0.140000	   24.789063
    2.3813	 -0.002500	  0.028000	  1.006500	   -0.380000	   -0.120000	    0.330000	   24.792969
    2.3913	 -0.002000	  0.027000	  1.005500	   -0.320000	   -0.070000	    0.280000	   24.808594
    2.4013	 -0.003000	  0.028000	  1.006500	   -0.300000	    0.030000	    0.300000	   24.792969
    2.4113	 -0.002000	  0.026500	  1.006500	   -0.340000	   -0.110000	    0.260000	   24.789063
    2.4213	 -0.001500	  0.027000	  1.007500	   -0.470000	   -0.140000	    0.320000	   24.824219
    2.4313	 -0.003500	  0.026500	  1.007000	   -0.510000	   -0.070000	    0.230000	   24.824219
    2.4413	 -0.003000	  0.026500	  1.007000	   -0.390000	   -0.120000	    0.250000	   24.789063
    2.4513	 -0.002000	  0.027500	  1.008000	   -0.250000	   -0.050000	    0.310000	   24.792969
    2.4613	 -0.002500	  0.027500	  1.006500	   -0.490000	   -0.140000	    0.250000	   24.773438
    2.4714	 -0.003000	  0.027500	  1.006500	   -0.450000	   -0.130000	    0.290000	   24.781250
    2.4813	 -0.002000	  0.027500	  1.007500	   -0.380000	   -0.110000	    0.280000	   24.781250
    2.4913	 -0.002000	  0.027000	  1.007000	   -0.280000	   -0.090000	    0.350000	   24.808594
    2.5013	 -0.003000	  0.027500	  1.004500	   -0.390000	   -0.090000	    0.260000	   24.796875
    2.5113	 -0.003500	  0.028000	  1.007000	   -0.300000	    0.010000	    0.280000	   24.796875
    2.5213	 -0.002500	  0.026500	  1.007000	   -0.420000	   -0.180000	    0.230000	   24.800781
    2.5313	 -0.003500	  0.028500	  1.006500	   -0.330000	   -0.110000	    0.210000	   24.796875
    2.5413	 -0.003000	  0.027500	  1.007000	   -0.350000	   -0.270000	    0.230000	   24.816406
    2.5513	 -0.003000	  0.027500	  1.006500	   -0.230000	   -0.010000	    0.210000	   24.800781
    2.5613	 -0.004000	  0.026500	  1.005500	   -0.260000	   -0.220000	    0.250000	   24.792969
    2.5714	 -0.005000	  0.027000	  1.007000	   -0.430000	   -0.010000	    0.260000	   24.789063
    2.5813	 -0.004000	  0.025000	  1.006000	   -0.450000	   -0.210000	    0.230000	   24.804688
    2.5913	 -0.004000	  0.028000	  1.006500	   -0.320000	   -0.140000	    0.250000	   24.816406
    2.6013	 -0.005000	  0.028000	  1.007000	   -0.390000	   -0.110000	    0.250000	   24.796875
    2.6113	 -0.004000	  0.027000	  1.006500	   -0.410000	   -0.230000	    0.360000	   24.800781
    2.6213	 -0.003500	  0.028000	  1.006500	   -0.260000	   -0.140000	    0.260000	   24.808594
    2.6313	 -0.003000	  0.028000	  1.007000	   -0.440000	   -0.050000	    0.190000	   24.812500
    2.6413	 -0.003500	  0.027500	  1.005500	   -0.290000	   -0.200000	    0.260000	   24.828125
    2.6513	 -0.003000	  0.028000	  1.006500	   -0.320000	   -0.200000	    0.250000	   24.804688
    2.6613	 -0.003000	  0.028500	  1.007000	   -0.540000	   -0.240000	    0.380000	   24.781250
    2.6714	 -0.001000	  0.027000	  1.006000	   -0.270000	   -0.210000	    0.260000	   24.789063
    2.6813	 -0.002000	  0.028500	  1.006500	   -0.340000	    0.010000	    0.220000	   24.785156
    2.6913	 -0.004000	  0.026500	  1.007500	   -0.410000	   -0.190000	    0.200000	   24.789063
    2.7013	 -0.003500	  0.027000	  1.007000	   -0.340000	   -0.140000	    0.220000	   24.792969
    2.7113	 -0.001500	  0.026500	  1.007000	   -0.420000	   -0.150000	    0.230000	   24.792969
    2.7213	 -0.003000	  0.027500	  1.008000	   -0.370000	   -0.170000	    0.170000	   24.792969
    2.7313	 -0.003000	  0.027500	  1.006500	   -0.340000	   -0.140000	    0.290000	   24.781250
    2.7413	 -0.002000	  0.027500	  1.006000	   -0.310000	   -0.120000	    0.310000	   24.789063
    2.7513	 -0.003500	  0.028000	  1.007500	   -0.290000	   -0.270000	    0.180000	   24.800781
    2.7613	 -0.003000	  0.028000	  1.007000	   -0.410000	   -0.120000	    0.270000	   24.777344
    2.7714	 -0.002500	  0.027500	  1.006500	   -0.350000	   -0.250000	    0.290000	   24.792969
    2.7813	 -0.003000	  0.026500	  1.007000	   -0.420000	   -0.090000	    0.170000	   24.800781
    2.7913	 -0.002500	  0.026500	  1.007000	   -0.370000	   -0.140000	    0.310000	   24.808594
    2.8013	 -0.001000	  0.026000	  1.006000	   -0.360000	   -0.140000	    0.200000	   24.832031
    2.8113	 -0.002500	  0.027500	  1.008000	   -0.320000	   -0.240000	    0.190000	   24.824219
    2.8213	 -0.002500	  0.026000	  1.007500	   -0.350000	   -0.110000	    0.310000	   24.789063
    2.8313	 -0.002000	  0.026500	  1.007500	   -0.300000	   -0.090000	    0.310000	   24.792969
    2.8413	 -0.002000	  0.027000	  1.008000	   -0.440000	   -0.230000	    0.270000	   24.804688
    2.8513	 -0.002000	  0.027500	  1.005500	   -0.250000	   -0.010000	    0.240000	   24.804688
    2.8613	 -0.001000	  0.027500	  1.006500	   -0.430000	   -0.310000	    0.230000	   24.816406
    2.8713	 -0.001000	  0.027000	  1.007000	   -0.410000	   -0.250000	    0.150000	   24.792969
    2.8813	 -0.001000	  0.027000	  1.005500	   -0.430000	   -0.310000	    0.230000	   24.820313
    2.8913	 -0.003000	  0.027000	  1.007500	   -0.370000	   -0.090000	    0.350000	   24.832031
    2.9013	 -0.000500	  0.027500	  1.007000	   -0.450000	   -0.220000	    0.270000	   24.800781
    2.9113	 -0.002000	  0.026500	  1.005500	   -0.520000	   -0.280000	    0.250000	   24.820313
    2.9213	 -0.003500	  0.027000	  1.006500	   -0.310000	   -0.150000	    0.210000	   24.820313
    2.9317	 -0.001500	  0.027000	  1.006500	   -0.390000	   -0.200000	    0.280000	   24.828125
    2.9413	 -0.001500	  0.026500	  1.006000	   -0.370000	   -0.290000	    0.250000	   24.808594
    2.9513	 -0.002500	  0.027000	  1.007500	   -0.440000	   -0.190000	    0.210000	   24.820313
    2.9613	 -0.002000	  0.025500	  1.008000	   -0.340000	   -0.070000	    0.180000	   24.800781
    2.9714	 -0.001500	  0.027000	  1.006500	   -0.320000	   -0.100000	    0.150000	   24.824219
    2.9813	 -0.002000	  0.026500	  1.008000	   -0.280000	   -0.180000	    0.170000	   24.812500
    2.9913	 -0.002500	  0.027500	  1.007000	   -0.390000	   -0.100000	    0.230000	   24.785156
    3.0013	 -0.002000	  0.027000	  1.007000	   -0.330000	   -0.110000	    0.270000	   24.792969
    3.0113	 -0.001500	  0.028500	  1.008000	   -0.420000	   -0.240000	    0.230000	   24.796875
    3.0213	 -0.002500	  0.026500	  1.007000	   -0.370000	   -0.010000	    0.340000	   24.792969
    3.0313	 -0.002500	  0.028000	  1.008000	   -0.460000	   -0.150000	    0.210000	   24.785156
    3.0413	 -0.001500	  0.026500	  1.008500	   -0.260000	   -0.070000	    0.210000	   24.800781
    3.0513	 -0.001500	  0.027000	  1.006000	   -0.330000	   -0.130000	    0.250000	   24.816406
    3.0613	 -0.002500	  0.028000	  1.007500	   -0.460000	   -0.120000	    0.270000	   24.792969
    3.0714	 -0.002500	  0.027500	  1.007500	   -0.380000	   -0.110000	    0.250000	   24.781250
    3.0813	 -0.001500	  0.028500	  1.007000	   -0.370000	   -0.180000	    0.290000	   24.796875
    3.0913	 -0.002500	  0.027000	  1.007000	   -0.470000	   -0.190000	    0.260000	   24.796875
    3.1014	 -0.002000	  0.027500	  1.006500	   -0.380000	    0.000000	    0.140000	   24.792969
    3.1113	 -0.001500	  0.027500	  1.007000	   -0.330000	   -0.170000	    0.250000	   24.789063
    3.1213	 -0.003000	  0.027000	  1.007000	   -0.340000	   -0.130000	    0.260000	   24.785156
    3.1314	 -0.002500	  0.027000	  1.007000	   -0.400000	   -0.150000	    0.330000	   24.785156
    3.1413	 -0.001500	  0.028000	  1.007500	   -0.440000	   -0.270000	    0.280000	   24.808594
    3.1513	 -0.001500	  0.028000	  1.006500	   -0.310000	   -0.150000	    0.170000	   24.808594
    3.1613	 -0.002500	  0.028000	  1.007500	   -0.460000	   -0.080000	    0.210000	   24.789063
    3.1714	 -0.003500	  0.027000	  1.007500	   -0.370000	   -0.040000	    0.240000	   24.808594
    3.1814	 -0.001500	  0.027500	  1.005500	   -0.340000	   -0.070000	    0.250000	   24.808594
    3.1913	 -0.003500	  0.028000	  1.007000	   -0.410000	   -0.090000	    0.290000	   24.800781
    3.2014	 -0.004000	  0.027000	  1.007500	   -0.370000	    0.000000	    0.220000	   24.816406
    3.2113	 -0.002500	  0.025500	  1.005000	   -0.360000	   -0.200000	    0.220000	   24.820313
    3.2214	 -0.004000	  0.027000	  1.008000	   -0.350000	   -0.160000	    0.310000	   24.832031
    3.2314	 -0.003000	  0.026500	  1.006500	   -0.310000	   -0.090000	    0.200000	   24.816406
    3.2414	 -0.002500	  0.026500	  1.007500	   -0.300000	   -0.090000	    0.280000	   24.808594
    3.2514	 -0.003500	  0.026000	  1.007000	   -0.340000	   -0.140000	    0.170000	   24.796875
    3.2614	 -0.003000	  0.027500	  1.006500	   -0.330000	   -0.210000	    0.230000	   24.785156
    3.2714	 -0.002500	  0.027000	  1.007500	   -0.450000	   -0.110000	    0.330000	   24.812500
    3.2814	 -0.002000	  0.027500	  1.006000	   -0.350000	   -0.110000	    0.320000	   24.816406
    3.2914	 -0.002500	  0.027500	  1.007000	   -0.380000	   -0.110000	    0.270000	   24.796875
    3.3014	 -0.002000	  0.027500	  1.006000	   -0.340000	   -0.130000	    0.220000	   24.789063
    3.3114	 -0.002000	  0.027000	  1.008000	   -0.480000	   -0.170000	    0.260000	   24.804688
    3.3214	 -0.001500	  0.026500	  1.007000	   -0.370000	   -0.050000	    0.220000	   24.816406
    3.3314	 -0.003000	  0.027500	  1.005000	   -0.250000	    0.020000	    0.280000	   24.808594
    3.3414	 -0.003000	  0.027500	  1.007000	   -0.330000	   -0.170000	    0.360000	   24.804688
    3.3514	 -0.002500	  0.026500	  1.006000	   -0.370000	   -0.160000	    0.190000	   24.792969
    3.3614	 -0.003500	  0.027000	  1.006500	   -0.370000	   -0.150000	    0.310000	   24.804688
    3.3714	 -0.003000	  0.026000	  1.008500	   -0.290000	   -0.130000	    0.270000	   24.785156
    3.3814	 -0.002500	  0.026000	  1.007500	   -0.370000	   -0.090000	    0.300000	   24.800781
    3.3914	 -0.002500	  0.028000	  1.006500	   -0.330000	   -0.240000	    0.200000	   24.792969
    3.4014	 -0.004000	  0.026500	  1.007000	   -0.330000	   -0.110000	    0.200000	   24.800781
    3.4114	 -0.002500	  0.027000	  1.007500	   -0.480000	   -0.060000	    0.300000	   24.792969
    3.4214	 -0.003000	  0.026500	  1.005000	   -0.390000	   -0.120000	    0.320000	   24.804688
    3.4314	 -0.003000	  0.027500	  1.008000	   -0.450000	   -0.050000	    0.290000	   24.824219
    3.4414	 -0.003000	  0.026500	  1.007000	   -0.390000	   -0.160000	    0.300000	   24.828125
    3.4514	 -0.003000	  0.028000	  1.007000	   -0.400000	   -0.080000	    0.270000	   24.839844
    3.4614	 -0.002000	  0.028000	  1.005500	   -0.370000	   -0.100000	    0.310000	   24.828125
    3.4714	 -0.003500	  0.027000	  1.007000	   -0.470000	   -0.200000	    0.230000	   24.828125
    3.4814	 -0.002500	  0.026500	  1.007500	   -0.340000	   -0.150000	    0.180000	   24.800781
    3.4914	 -0.002500	  0.028000	  1.005500	   -0.420000	   -0.020000	    0.310000	   24.800781
    3.5014	 -0.002000	  0.026500	  1.006000	   -0.420000	   -0.010000	    0.150000	   24.781250
    3.5114	 -0.002000	  0.027000	  1.006500	   -0.400000	   -0.160000	    0.280000	   24.808594
    3.5214	 -0.002000	  0.027500	  1.006500	   -0.340000	   -0.180000	    0.340000	   24.800781
    3.5314	 -0.003000	  0.026000	  1.007000	   -0.270000	   -0.160000	    0.340000	   24.808594
    3.5414	 -0.003000	  0.027000	  1.008000	   -0.430000	   -0.110000	    0.310000	   24.832031
    3.5514	 -0.003000	  0.027000	  1.005000	   -0.390000	   -0.140000	    0.210000	   24.816406
    3.5614	 -0.002500	  0.026500	  1.008000	   -0.340000	   -0.100000	    0.190000	   24.804688
    3.5714	 -0.004000	  0.027500	  1.007500	   -0.430000	   -0.190000	    0.200000	   24.808594
    3.5814	 -0.002000	  0.027500	  1.005000	   -0.340000	   -0.120000	    0.240000	   24.789063
    3.5914	 -0.003500	  0.027000	  1.007000	   -0.400000	   -0.150000	    0.240000	   24.804688
    3.6014	 -0.003000	  0.028000	  1.008500	   -0.520000	   -0.270000	    0.150000	   24.824219
    3.6114	 -0.002500	  0.027000	  1.006500	   -0.360000	   -0.010000	    0.160000	   24.800781
    3.6214	 -0.001500	  0.027500	  1.007500	   -0.350000	   -0.140000	    0.200000	   24.820313
    3.6314	 -0.002000	  0.027500	  1.005500	   -0.320000	   -0.020000	    0.140000	   24.816406
    3.6414	 -0.002500	  0.027000	  1.007500	   -0.220000	   -0.130000	    0.310000	   24.816406
    3.6514	 -0.002000	  0.027000	  1.009000	   -0.430000	   -0.170000	    0.170000	   24.816406
    3.6614	 -0.002500	  0.027500	  1.007500	   -0.230000	   -0.160000	    0.230000	   24.769531
    3.6714	 -0.003000	  0.027500	  1.008000	   -0.420000	   -0.140000	    0.330000	   24.792969
    3.6814	 -0.002000	  0.026000	  1.006500	   -0.480000	   -0.060000	    0.210000	   24.792969
    3.6914	 -0.002000	  0.027000	  1.007000	   -0.420000	   -0.010000	    0.250000	   24.800781
    3.7014	 -0.003000	  0.026500	  1.007000	   -0.330000	   -0.050000	    0.240000	   24.777344
    3.7114	 -0.002500	  0.026500	  1.007000	   -0.480000	   -0.170000	    0.190000	   24.773438
    3.7214	 -0.001500	  0.026500	  1.006000	   -0.410000	   -0.060000	    0.240000	   24.796875
    3.7314	 -0.003500	  0.026500	  1.007000	   -0.360000	   -0.040000	    0.220000	   24.824219
    3.7414	 -0.002500	  0.027000	  1.006500	   -0.310000	   -0.180000	    0.280000	   24.812500
    3.7514	 -0.002000	  0.026500	  1.006500	   -0.500000	   -0.240000	    0.180000	   24.792969
    3.7614	 -0.002000	  0.026500	  1.006500	   -0.150000	   -0.080000	    0.130000	   24.781250
    3.7714	 -0.001500	  0.027000	  1.006000	   -0.420000	   -0.150000	    0.290000	   24.800781
    3.7814	 -0.003000	  0.028000	  1.007500	   -0.360000	    0.080000	    0.180000	   24.800781
    3.7914	 -0.002500	  0.027500	  1.006500	   -0.400000	   -0.110000	    0.300000	   24.800781
    3.8014	 -0.003000	  0.026500	  1.007500	   -0.380000	   -0.170000	    0.340000	   24.808594
    3.8114	 -0.002000	  0.026500	  1.006500	   -0.240000	   -0.100000	    0.190000	   24.824219
    3.8214	 -0.003000	  0.026500	  1.006500	   -0.420000	   -0.090000	    0.220000	   24.804688
    3.8314	 -0.002500	  0.027000	  1.006500	   -0.400000	   -0.130000	    0.290000	   24.781250
    3.8414	 -0.001000	  0.028000	  1.007000	   -0.350000	   -0.240000	    0.180000	   24.785156
    3.8514	 -0.003000	  0.027500	  1.007000	   -0.250000	   -0.210000	    0.280000	   24.792969
    3.8614	 -0.002500	  0.027500	  1.007000	   -0.480000	   -0.290000	    0.340000	   24.800781
    3.8714	 -0.003000	  0.027500	  1.007000	   -0.360000	   -0.190000	    0.240000	   24.800781
    3.8814	 -0.003000	  0.026500	  1.007500	   -0.340000	   -0.120000	    0.150000	   24.792969
    3.8914	 -0.001500	  0.028000	  1.008000	   -0.450000	   -0.220000	    0.280000	   24.800781
    3.9014	 -0.002000	  0.027500	  1.005500	   -0.440000	   -0.230000	    0.230000	   24.785156
    3.9114	 -0.003000	  0.026500	  1.008000	   -0.340000	   -0.120000	    0.250000	   24.769531
    3.9214	 -0.001500	  0.028000	  1.006000	   -0.380000	   -0.190000	    0.230000	   24.808594
    3.9318	 -0.002000	  0.027000	  1.007000	   -0.330000	   -0.110000	    0.300000	   24.835938
    3.9414	 -0.003000	  0.027500	  1.006500	   -0.300000	   -0.020000	    0.270000	   24.804688
    3.9514	 -0.002000	  0.027000	  1.006500	   -0.300000	   -0.100000	    0.310000	   24.796875
    3.9614	 -0.001000	  0.026500	  1.007000	   -0.300000	   -0.080000	    0.280000	   24.800781
    3.9714	 -0.003000	  0.027500	  1.008000	   -0.370000	   -0.130000	    0.270000	   24.796875
    3.9814	 -0.001500	  0.028000	  1.006500	   -0.390000	   -0.130000	    0.220000	   24.804688
    3.9914	 -0.002500	  0.027500	  1.007500	   -0.230000	   -0.100000	    0.300000	   24.792969
    4.0014	 -0.003000	  0.026000	  1.009500	   -0.310000	   -0.080000	    0.230000	   24.820313
    4.0114	 -0.002000	  0.026500	  1.005500	   -0.440000	   -0.090000	    0.340000	   24.808594
    4.0214	 -0.002000	  0.027000	  1.008000	   -0.320000	   -0.280000	    0.210000	   24.800781
    4.0314	 -0.002500	  0.026500	  1.007000	   -0.410000	   -0.160000	    0.430000	   24.812500
    4.0414	 -0.002500	  0.026500	  1.006500	   -0.390000	   -0.160000	    0.250000	   24.796875
    4.0514	 -0.002500	  0.027000	  1.008000	   -0.370000	   -0.140000	    0.260000	   24.785156
    4.0614	 -0.002500	  0.027000	  1.005000	   -0.400000	   -0.130000	    0.330000	   24.773438
    4.0714	 -0.001500	  0.027000	  1.006500	   -0.290000	   -0.220000	    0.220000	   24.785156
    4.0814	 -0.002000	  0.026500	  1.006000	   -0.410000	   -0.130000	    0.240000	   24.789063
    4.0914	 -0.002000	  0.027500	  1.007500	   -0.460000	   -0.150000	    0.310000	   24.781250
    4.1014	 -0.003000	  0.027000	  1.006000	   -0.400000	   -0.280000	    0.350000	   24.777344
    4.1114	 -0.002500	  0.028000	  1.007000	   -0.370000	   -0.150000	    0.240000	   24.808594
    4.1214	 -0.001500	  0.027500	  1.007000	   -0.400000	   -0.120000	    0.240000	   24.804688
    4.1314	 -0.002500	  0.027500	  1.006000	   -0.390000	   -0.220000	    0.280000	   24.800781
    4.1414	 -0.003500	  0.028000	  1.008000	   -0.410000	   -0.030000	    0.210000	   24.808594
    4.1514	 -0.001000	  0.027500	  1.007000	   -0.330000	   -0.050000	    0.210000	   24.816406
    4.1614	 -0.002500	  0.027500	  1.007500	   -0.370000	   -0.100000	    0.270000	   24.781250
    4.1714	 -0.003500	  0.026500	  1.008000	   -0.250000	   -0.140000	    0.200000	   24.796875
    4.1814	 -0.001000	  0.026500	  1.006000	   -0.400000	   -0.210000	    0.280000	   24.796875
    4.1914	 -0.003000	  0.027500	  1.005500	   -0.460000	   -0.120000	    0.350000	   24.796875
    4.2014	 -0.003000	  0.027000	  1.007500	   -0.320000	   -0.040000	    0.150000	   24.804688
    4.2114	 -0.002000	  0.027500	  1.004500	   -0.310000	   -0.180000	    0.310000	   24.812500
    4.2214	 -0.003500	  0.027000	  1.006500	   -0.550000	   -0.100000	    0.270000	   24.808594
    4.2314	 -0.002000	  0.027500	  1.007000	   -0.480000	   -0.110000	    0.280000	   24.792969
    4.2414	 -0.002500	  0.027000	  1.006500	   -0.260000	   -0.190000	    0.200000	   24.808594
    4.2514	 -0.003000	  0.028000	  1.005500	   -0.330000	   -0.170000	    0.260000	   24.785156
    4.2614	 -0.002500	  0.028500	  1.009000	   -0.370000	   -0.100000	    0.320000	   24.777344
    4.2715	 -0.003500	  0.026500	  1.006000	   -0.530000	   -0.080000	    0.280000	   24.804688
    4.2814	 -0.003000	  0.028000	  1.007000	   -0.440000	   -0.170000	    0.270000	   24.804688
    4.2914	 -0.003000	  0.028000	  1.009000	   -0.390000	   -0.110000	    0.280000	   24.812500
    4.3014	 -0.002500	  0.028000	  1.005500	   -0.380000	   -0.180000	    0.240000	   24.808594
    4.3114	 -0.004000	  0.027500	  1.009000	   -0.350000	    0.070000	    0.190000	   24.796875
    4.3214	 -0.003000	  0.028000	  1.006500	   -0.350000	   -0.100000	    0.170000	   24.804688
    4.3314	 -0.002000	  0.027500	  1.006500	   -0.160000	   -0.160000	    0.350000	   24.808594
    4.3414	 -0.003500	  0.028000	  1.006500	   -0.350000	   -0.160000	    0.260000	   24.816406
    4.3514	 -0.002500	  0.028000	  1.006000	   -0.290000	   -0.070000	    0.300000	   24.808594
    4.3614	 -0.002000	  0.027000	  1.005500	   -0.350000	   -0.140000	    0.160000	   24.820313
    4.3715	 -0.003000	  0.028500	  1.007500	   -0.270000	   -0.150000	    0.260000	   24.824219
    4.3814	 -0.003000	  0.027500	  1.006000	   -0.320000	   -0.110000	    0.310000	   24.796875
    4.3914	 -0.004000	  0.027000	  1.007000	   -0.350000	   -0.160000	    0.350000	   24.800781
    4.4014	 -0.003500	  0.027000	  1.009000	   -0.350000	   -0.220000	    0.280000	   24.789063
    4.4114	 -0.002500	  0.026500	  1.006000	   -0.450000	    0.010000	    0.220000	   24.781250
    4.4214	 -0.004000	  0.026000	  1.008000	   -0.380000	   -0.150000	    0.320000	   24.789063
    4.4314	 -0.003000	  0.027000	  1.007500	   -0.410000	   -0.310000	    0.290000	   24.792969
    4.4414	 -0.002000	  0.027000	  1.007500	   -0.310000	   -0.140000	    0.270000	   24.800781
    4.4514	 -0.003500	  0.026500	  1.006000	   -0.360000	   -0.160000	    0.240000	   24.800781
    4.4614	 -0.002000	  0.027000	  1.008000	   -0.310000	   -0.030000	    0.220000	   24.820313
    4.4715	 -0.002500	  0.027500	  1.007000	   -0.520000	   -0.150000	    0.310000	   24.820313
    4.4814	 -0.002500	  0.027000	  1.007000	   -0.340000	   -0.230000	    0.220000	   24.824219
    4.4914	 -0.002500	  0.027500	  1.005500	   -0.380000	   -0.230000	    0.230000	   24.804688
    4.5014	 -0.002000	  0.027500	  1.007000	   -0.420000	   -0.140000	    0.250000	   24.796875
    4.5114	 -0.002500	  0.027500	  1.005500	   -0.300000	   -0.140000	    0.180000	   24.792969
    4.5214	 -0.002500	  0.027500	  1.008000	   -0.450000	   -0.160000	    0.300000	   24.792969
    4.5314	 -0.002500	  0.028000	  1.007500	   -0.460000	   -0.150000	    0.250000	   24.804688
    4.5414	 -0.002000	  0.026500	  1.006500	   -0.470000	   -0.090000	    0.230000	   24.808594
    4.5514	 -0.003500	  0.027000	  1.007500	   -0.280000	    0.000000	    0.300000	   24.789063
    4.5614	 -0.002000	  0.026500	  1.006000	   -0.370000	   -0.200000	    0.260000	   24.796875
    4.5715	 -0.000500	  0.027500	  1.007000	   -0.430000	   -0.090000	    0.310000	   24.816406
    4.5814	 -0.002500	  0.026500	  1.006500	   -0.430000	   -0.060000	    0.250000	   24.777344
    4.5914	 -0.002000	  0.026500	  1.006500	   -0.350000	   -0.090000	    0.160000	   24.773438
    4.6014	 -0.002500	  0.027000	  1.005500	   -0.410000	   -0.130000	    0.170000	   24.796875
    4.6114	 -0.002000	  0.028500	  1.008000	   -0.250000	   -0.150000	    0.310000	   24.789063
    4.6214	 -0.002000	  0.027000	  1.007000	   -0.460000	   -0.090000	    0.240000	   24.808594
    4.6314	 -0.003000	  0.028000	  1.006500	   -0.400000	   -0.070000	    0.310000	   24.832031
    4.6414	 -0.002500	  0.027500	  1.008000	   -0.310000	   -0.190000	    0.220000	   24.800781
    4.6514	 -0.001500	  0.027500	  1.006500	   -0.360000	   -0.090000	    0.180000	   24.785156
    4.6614	 -0.003000	  0.027500	  1.008500	   -0.380000	   -0.070000	    0.240000	   24.785156
    4.6715	 -0.002500	  0.026500	  1.008500	   -0.390000	   -0.170000	    0.310000	   24.816406
    4.6814	 -0.002000	  0.027500	  1.006000	   -0.310000	   -0.160000	    0.170000	   24.824219
    4.6914	 -0.003000	  0.026500	  1.006500	   -0.560000	   -0.170000	    0.300000	   24.820313
    4.7014	 -0.002500	  0.026000	  1.007000	   -0.310000	   -0.160000	    0.250000	   24.804688
    4.7114	 -0.002000	  0.027000	  1.006500	   -0.500000	   -0.050000	    0.150000	   24.804688
    4.7214	 -0.002000	  0.026500	  1.006500	   -0.330000	   -0.270000	    0.370000	   24.808594
    4.7314	 -0.002000	  0.027500	  1.007000	   -0.430000	   -0.100000	    0.260000	   24.785156
    4.7414	 -0.002500	  0.027500	  1.007500	   -0.350000	   -0.180000	    0.310000	   24.792969
    4.7514	 -0.003000	  0.027000	  1.008000	   -0.360000	   -0.230000	    0.270000	   24.796875
    4.7614	 -0.003000	  0.028000	  1.007000	   -0.380000	   -0.150000	    0.280000	   24.804688
    4.7715	 -0.003000	  0.026500	  1.006500	   -0.400000	   -0.190000	    0.280000	   24.792969
    4.7814	 -0.003000	  0.027000	  1.007000	   -0.400000	   -0.150000	    0.240000	   24.789063
    4.7914	 -0.002500	  0.026500	  1.007000	   -0.400000	   -0.190000	    0.230000	   24.792969
    4.8014	 -0.002000	  0.026500	  1.006000	   -0.450000	    0.060000	    0.160000	   24.789063
    4.8114	 -0.002000	  0.026000	  1.007500	   -0.490000	   -0.170000	    0.230000	   24.800781
    4.8214	 -0.003500	  0.027000	  1.007500	   -0.420000	   -0.190000	    0.320000	   24.796875
    4.8315	 -0.003500	  0.026500	  1.005500	   -0.360000	   -0.140000	    0.310000	   24.800781
    4.8414	 -0.002000	  0.027500	  1.007000	   -0.390000	   -0.110000	    0.320000	   24.812500
    4.8514	 -0.001500	  0.027000	  1.008500	   -0.420000	   -0.050000	    0.280000	   24.824219
    4.8614	 -0.001000	  0.027500	  1.005500	   -0.310000	   -0.160000	    0.300000	   24.812500
    4.8714	 -0.002000	  0.026000	  1.007000	   -0.330000	   -0.110000	    0.210000	   24.785156
    4.8814	 -0.002000	  0.028000	  1.007500	   -0.310000	   -0.230000	    0.300000	   24.789063
    4.8914	 -0.002000	  0.028500	  1.006000	   -0.450000	   -0.090000	    0.260000	   24.777344
    4.9014	 -0.002500	  0.027000	  1.007500	   -0.410000	   -0.170000	    0.300000	   24.789063
    4.9114	 -0.002500	  0.028500	  1.006500	   -0.370000	   -0.070000	    0.320000	   24.800781
    4.9214	 -0.003500	  0.027000	  1.005500	   -0.310000	   -0.170000	    0.180000	   24.792969
    4.9318	 -0.002500	  0.027000	  1.007500	   -0.410000	   -0.120000	    0.300000	   24.792969
    4.9415	 -0.003000	  0.028000	  1.005500	   -0.380000	   -0.240000	    0.290000	   24.789063
    4.9515	 -0.004000	  0.027500	  1.007000	   -0.390000	   -0.140000	    0.210000	   24.808594
    4.9615	 -0.003000	  0.026000	  1.007500	   -0.260000	   -0.180000	    0.270000	   24.828125
    4.9715	 -0.003500	  0.027500	  1.007000	   -0.550000	   -0.140000	    0.340000	   24.804688
    4.9815	 -0.003500	  0.026500	  1.006500	   -0.360000	   -0.090000	    0.210000	   24.800781
    4.9915	 -0.003500	  0.028000	  1.008500	   -0.410000	   -0.160000	    0.310000	   24.796875
    5.0015	 -0.001500	  0.028000	  1.008000	   -0.430000	   -0.250000	    0.260000	   24.808594
    5.0115	 -0.003000	  0.028500	  1.007000	   -0.330000	   -0.150000	    0.370000	   24.792969
    5.0215	 -0.002000	  0.028000	  1.007500	   -0.430000	   -0.200000	    0.260000	   24.804688
    5.0315	 -0.002000	  0.027000	  1.005500	   -0.320000	   -0.160000	    0.220000	   24.796875
    5.0415	 -0.002000	  0.028000	  1.007500	   -0.330000	   -0.130000	    0.290000	   24.804688
    5.0515	 -0.001500	  0.026500	  1.007000	   -0.330000	   -0.070000	    0.290000	   24.800781
    5.0615	 -0.002000	  0.028000	  1.007500	   -0.270000	   -0.090000	    0.250000	   24.800781
    5.0715	 -0.002500	  0.027000	  1.006000	   -0.320000	   -0.010000	    0.200000	   24.800781
    5.0815	 -0.001000	  0.027500	  1.007500	   -0.310000	   -0.080000	    0.240000	   24.800781
    5.0915	 -0.003500	  0.026500	  1.008000	   -0.300000	   -0.090000	    0.140000	   24.789063
    5.1015	 -0.003000	  0.027000	  1.006500	   -0.320000	   -0.090000	    0.200000	   24.796875
    5.1115	 -0.002500	  0.026000	  1.006500	   -0.320000	   -0.090000	    0.280000	   24.800781
    5.1215	 -0.003000	  0.026500	  1.007500	   -0.310000	   -0.190000	    0.200000	   24.777344
    5.1315	 -0.003500	  0.027000	  1.005500	   -0.260000	   -0.210000	    0.240000	   24.777344
    5.1415	 -0.003000	  0.027000	  1.007000	   -0.350000	   -0.150000	    0.380000	   24.792969
    5.1515	 -0.003500	  0.026500	  1.009000	   -0.370000	   -0.130000	    0.130000	   24.800781
    5.1615	 -0.001500	  0.027000	  1.005500	   -0.480000	   -0.090000	    0.240000	   24.792969
    5.1715	 -0.002500	  0.028000	  1.006000	   -0.420000	   -0.010000	    0.270000	   24.812500
    5.1815	 -0.001500	  0.025000	  1.006500	   -0.340000	   -0.150000	    0.180000	   24.812500
    5.1915	 -0.002000	  0.028000	  1.006000	   -0.370000	   -0.110000	    0.340000	   24.800781
    5.2015	 -0.001500	  0.026500	  1.005500	   -0.340000	   -0.060000	    0.160000	   24.773438
    5.2115	 -0.003500	  0.028000	  1.006500	   -0.490000	   -0.160000	    0.260000	   24.800781
    5.2215	 -0.005000	  0.028000	  1.007000	   -0.460000	   -0.280000	    0.180000	   24.808594
    5.2315	 -0.002500	  0.027000	  1.006500	   -0.340000	   -0.090000	    0.270000	   24.792969
    5.2415	  0.000500	  0.025500	  1.006500	   -0.400000	   -0.140000	    0.260000	   24.792969
    5.2515	 -0.001500	  0.025500	  1.004500	   -0.380000	   -0.030000	    0.290000	   24.800781
    5.2615	 -0.005000	  0.027000	  1.005500	   -0.360000	   -0.160000	    0.220000	   24.804688
    5.2715	 -0.003500	  0.028000	  1.010000	   -0.220000	   -0.150000	    0.230000	   24.804688
    5.2815	  0.000500	  0.029000	  1.008500	   -0.450000	    0.050000	    0.290000	   24.804688
    5.2915	 -0.001000	  0.029000	  1.008500	   -0.360000	   -0.240000	    0.340000	   24.800781
    5.3015	 -0.004000	  0.029500	  1.009000	   -0.490000	   -0.030000	    0.220000	   24.796875
    5.3115	  0.001500	  0.028000	  1.007500	   -0.370000	    0.010000	    0.240000	   24.792969
    5.3215	  0.001000	  0.027500	  1.007000	   -0.310000	   -0.210000	    0.250000	   24.812500
    5.3315	 -0.002500	  0.027500	  1.008000	   -0.400000	   -0.210000	    0.260000	   24.804688
    5.3415	 -0.001500	  0.028000	  1.007000	   -0.410000	   -0.110000	    0.300000	   24.765625
    5.3515	 -0.000500	  0.027500	  1.008500	   -0.440000	   -0.110000	    0.220000	   24.769531
    5.3615	 -0.001000	  0.027500	  1.007000	   -0.390000	   -0.060000	    0.190000	   24.792969
    5.3715	 -0.003000	  0.027000	  1.007000	   -0.470000	   -0.230000	    0.320000	   24.812500
    5.3815	 -0.004500	  0.025500	  1.007500	   -0.370000	   -0.250000	    0.360000	   24.812500
    5.3915	 -0.007000	  0.026000	  1.009500	   -0.470000	   -0.240000	    0.170000	   24.804688
    5.4015	 -0.004500	  0.024500	  1.006000	   -0.300000	   -0.150000	    0.280000	   24.785156
    5.4115	 -0.003500	  0.025000	  1.006500	   -0.360000	   -0.230000	    0.260000	   24.800781
    5.4215	 -0.004500	  0.025500	  1.006500	   -0.440000	   -0.040000	    0.210000	   24.789063
    5.4315	 -0.003500	  0.026500	  1.004000	   -0.310000	   -0.050000	    0.290000	   24.792969
    5.4415	 -0.001500	  0.027500	  1.006000	   -0.370000	   -0.120000	    0.370000	   24.785156
    5.4515	 -0.002000	  0.028500	  1.004500	   -0.280000	   -0.130000	    0.210000	   24.808594
    5.4615	 -0.002000	  0.027000	  1.004500	   -0.300000	    0.000000	    0.270000	   24.820313
    5.4715	 -0.001000	  0.027500	  1.006000	   -0.380000	   -0.110000	    0.230000	   24.792969
    5.4815	 -0.001000	  0.027000	  1.005500	   -0.330000	   -0.130000	    0.240000	   24.781250
    5.4915	 -0.002000	  0.027000	  1.006000	   -0.290000	   -0.220000	    0.300000	   24.796875
    5.5015	 -0.004000	  0.027000	  1.006500	   -0.470000	   -0.080000	    0.170000	   24.800781
    5.5115	 -0.004500	  0.026500	  1.006500	   -0.390000	   -0.090000	    0.230000	   24.789063
    5.5215	 -0.002500	  0.026500	  1.007500	   -0.260000	   -0.130000	    0.300000	   24.789063
    5.5315	 -0.004500	  0.026000	  1.006500	   -0.250000	   -0.180000	    0.220000	   24.796875
    5.5415	 -0.004500	  0.027500	  1.008000	   -0.320000	   -0.080000	    0.320000	   24.804688
    5.5515	 -0.003000	  0.027500	  1.005500	   -0.450000	   -0.220000	    0.250000	   24.789063
    5.5615	 -0.002500	  0.028000	  1.006500	   -0.450000	   -0.100000	    0.290000	   24.792969
    5.5715	 -0.003500	  0.028000	  1.008000	   -0.330000	   -0.220000	    0.160000	   24.773438
    5.5815	 -0.002500	  0.028000	  1.008000	   -0.420000	   -0.230000	    0.230000	   24.824219
    5.5915	 -0.003000	  0.027500	  1.007000	   -0.290000	   -0.260000	    0.280000	   24.792969
    5.6015	 -0.003500	  0.026000	  1.007000	   -0.230000	   -0.110000	    0.200000	   24.792969
    5.6115	 -0.003000	  0.027000	  1.008000	   -0.400000	   -0.180000	    0.280000	   24.792969
    5.6215	 -0.002500	  0.027000	  1.006000	   -0.280000	   -0.120000	    0.300000	   24.800781
    5.6315	 -0.002500	  0.028000	  1.007000	   -0.230000	   -0.030000	    0.290000	   24.792969
    5.6415	 -0.000500	  0.027500	  1.008000	   -0.400000	   -0.100000	    0.210000	   24.796875
    5.6515	 -0.000500	  0.029000	  1.008500	   -0.400000	   -0.190000	    0.210000	   24.796875
    5.6615	  0.000500	  0.028500	  1.007000	   -0.320000	   -0.080000	    0.210000	   24.792969
    5.6715	 -0.001000	  0.028500	  1.006000	   -0.380000	   -0.230000	    0.100000	   24.804688
    5.6815	 -0.004000	  0.028500	  1.009000	   -0.290000	   -0.090000	    0.310000	   24.792969
    5.6915	  0.001500	  0.026500	  1.005000	   -0.350000	   -0.140000	    0.250000	   24.808594
    5.7015	 -0.000500	  0.026500	  1.009500	   -0.310000	   -0.110000	    0.280000	   24.808594
    5.7115	 -0.005500	  0.027500	  1.007500	   -0.350000	   -0.130000	    0.250000	   24.796875
    5.7215	 -0.001000	  0.027500	  1.006000	   -0.270000	   -0.090000	    0.280000	   24.796875
    5.7315	 -0.004000	  0.027000	  1.009500	   -0.460000	   -0.190000	    0.240000	   24.781250
    5.7415	 -0.006000	  0.026000	  1.008000	   -0.360000	   -0.200000	    0.220000	   24.804688
    5.7515	 -0.004000	  0.026500	  1.005000	   -0.350000	   -0.020000	    0.230000	   24.796875
    5.7615	 -0.005000	  0.024500	  1.007000	   -0.390000	    0.030000	    0.280000	   24.792969
    5.7715	 -0.004000	  0.026500	  1.004500	   -0.410000	   -0.180000	    0.190000	   24.816406
    5.7815	 -0.002000	  0.024500	  1.005000	   -0.480000	   -0.240000	    0.400000	   24.789063
    5.7915	 -0.002000	  0.026000	  1.008500	   -0.420000	   -0.070000	    0.320000	   24.785156
    5.8015	 -0.001500	  0.026500	  1.005500	   -0.480000	   -0.140000	    0.380000	   24.777344
    5.8115	  0.000000	  0.027500	  1.005000	   -0.320000	   -0.040000	    0.280000	   24.800781
    5.8215	 -0.000500	  0.027000	  1.007500	   -0.310000	   -0.220000	    0.240000	   24.816406
    5.8315	 -0.001500	  0.028000	  1.005500	   -0.390000	   -0.280000	    0.260000	   24.808594
    5.8415	 -0.000500	  0.028000	  1.005500	   -0.490000	   -0.130000	    0.300000	   24.765625
    5.8515	 -0.001000	  0.028000	  1.008500	   -0.280000	   -0.220000	    0.210000	   24.777344
    5.8615	 -0.002000	  0.027500	  1.006500	   -0.280000	   -0.030000	    0.230000	   24.792969
    5.8715	 -0.002000	  0.027500	  1.006000	   -0.410000	   -0.100000	    0.290000	   24.804688
    5.8815	 -0.002000	  0.026500	  1.008500	   -0.320000	   -0.050000	    0.120000	   24.812500
    5.8915	 -0.001500	  0.029000	  1.006000	   -0.250000	   -0.040000	    0.270000	   24.816406
    5.9015	 -0.002500	  0.027500	  1.005000	   -0.340000	   -0.290000	    0.360000	   24.808594
    5.9115	 -0.004000	  0.028500	  1.007500	   -0.240000	   -0.120000	    0.220000	   24.804688
    5.9215	 -0.003500	  0.028000	  1.006500	   -0.230000	   -0.140000	    0.230000	   24.796875
    5.9319	 -0.004500	  0.027500	  1.005500	   -0.230000	   -0.150000	    0.260000	   24.816406
    5.9415	 -0.003500	  0.026000	  1.008000	   -0.420000	   -0.030000	    0.230000	   24.835938
    5.9515	 -0.004000	  0.026000	  1.006500	   -0.260000	   -0.070000	    0.170000	   24.816406
    5.9615	 -0.004000	  0.026500	  1.008000	   -0.520000	   -0.190000	    0.260000	   24.792969
    5.9716	 -0.004500	  0.028000	  1.007000	   -0.380000	   -0.180000	    0.290000	   24.812500
    5.9815	 -0.001500	  0.028000	  1.007500	   -0.270000	   -0.080000	    0.200000	   24.820313
    5.9915	 -0.002500	  0.028000	  1.006500	   -0.310000	   -0.090000	    0.330000	   24.812500
    6.0015	 -0.002000	  0.027500	  1.007500	   -0.420000	   -0.160000	    0.170000	   24.792969
    6.0115	  0.000500	  0.028000	  1.006000	   -0.440000	   -0.140000	    0.310000	   24.777344
    6.0215	  0.000000	  0.027500	  1.006500	   -0.280000	   -0.230000	    0.360000	   24.785156
    6.0315	 -0.001500	  0.026000	  1.005000	   -0.420000	   -0.210000	    0.300000	   24.761719
    6.0415	 -0.000500	  0.027500	  1.006000	   -0.320000	   -0.040000	    0.330000	   24.804688
    6.0515	 -0.001000	  0.026500	  1.008000	   -0.420000	   -0.080000	    0.230000	   24.812500
    6.0615	 -0.002500	  0.027000	  1.008500	   -0.440000	   -0.210000	    0.220000	   24.781250
    6.0716	 -0.003000	  0.028500	  1.006500	   -0.330000	   -0.160000	    0.270000	   24.800781
    6.0815	 -0.003000	  0.027000	  1.008000	   -0.240000	    0.010000	    0.260000	   24.824219
    6.0915	 -0.002000	  0.027000	  1.007000	   -0.380000	   -0.170000	    0.150000	   24.820313
    6.1015	 -0.003500	  0.026000	  1.007000	   -0.420000	   -0.110000	    0.200000	   24.804688
    6.1115	 -0.001500	  0.027500	  1.005500	   -0.360000	   -0.220000	    0.230000	   24.804688
    6.1215	 -0.000500	  0.025500	  1.006000	   -0.470000	   -0.120000	    0.220000	   24.804688
    6.1315	 -0.002000	  0.026500	  1.007000	   -0.470000	   -0.070000	    0.320000	   24.808594
    6.1415	 -0.001500	  0.026500	  1.007000	   -0.430000	   -0.150000	    0.330000	   24.792969
    6.1515	 -0.001500	  0.027500	  1.009000	   -0.490000	   -0.070000	    0.190000	   24.789063
    6.1615	 -0.002000	  0.028000	  1.007000	   -0.350000	   -0.110000	    0.250000	   24.796875
    6.1716	 -0.002000	  0.027500	  1.008000	   -0.420000	   -0.050000	    0.210000	   24.773438
    6.1815	 -0.001500	  0.026000	  1.008000	   -0.250000	   -0.060000	    0.290000	   24.781250
    6.1915	 -0.003000	  0.027000	  1.008000	   -0.390000	   -0.020000	    0.200000	   24.777344
    6.2015	 -0.002500	  0.026500	  1.006000	   -0.360000	   -0.110000	    0.240000	   24.773438
    6.2115	 -0.001000	  0.028000	  1.007500	   -0.140000	   -0.050000	    0.260000	   24.781250
    6.2215	 -0.001000	  0.026000	  1.006500	   -0.310000	   -0.020000	    0.160000	   24.792969
    6.2315	 -0.002000	  0.027000	  1.005000	   -0.390000	   -0.200000	    0.220000	   24.808594
    6.2415	 -0.002500	  0.026000	  1.006500	   -0.300000	   -0.160000	    0.190000	   24.777344
    6.2515	 -0.001500	  0.027500	  1.007500	   -0.260000	   -0.080000	    0.200000	   24.781250
    6.2615	 -0.003500	  0.027500	  1.006000	   -0.370000	   -0.290000	    0.210000	   24.781250
    6.2716	 -0.003500	  0.026500	  1.007500	   -0.330000	   -0.120000	    0.340000	   24.796875
    6.2815	 -0.002000	  0.027500	  1.008000	   -0.370000	   -0.180000	    0.180000	   24.800781
    6.2915	 -0.003000	  0.027000	  1.006500	   -0.340000	   -0.050000	    0.250000	   24.773438
    6.3015	 -0.004000	  0.027000	  1.007500	   -0.350000	   -0.210000	    0.260000	   24.773438
    6.3115	 -0.001500	  0.027500	  1.007000	   -0.420000	   -0.090000	    0.320000	   24.792969
    6.3215	 -0.002500	  0.027000	  1.006500	   -0.340000	    0.010000	    0.140000	   24.781250
    6.3315	 -0.003500	  0.027500	  1.007000	   -0.240000	   -0.010000	    0.280000	   24.765625
    6.3415	 -0.003000	  0.028000	  1.008500	   -0.400000	   -0.110000	    0.230000	   24.789063
    6.3515	 -0.001500	  0.027000	  1.006500	   -0.470000	   -0.080000	    0.300000	   24.792969
    6.3615	 -0.003500	  0.027500	  1.007500	   -0.380000	   -0.150000	    0.160000	   24.796875
    6.3716	 -0.002000	  0.028000	  1.007500	   -0.370000	   -0.070000	    0.280000	   24.792969
    6.3815	  0.000000	  0.026000	  1.005500	   -0.350000	   -0.200000	    0.290000	   24.804688
    6.3915	 -0.001000	  0.027500	  1.006500	   -0.350000	   -0.140000	    0.220000	   24.816406
    6.4015	 -0.005000	  0.028500	  1.007000	   -0.300000	   -0.190000	    0.210000	   24.812500
    6.4115	 -0.005000	  0.028500	  1.008500	   -0.290000	   -0.180000	    0.200000	   24.808594
    6.4215	 -0.004000	  0.027500	  1.008500	   -0.530000	   -0.310000	    0.210000	   24.796875
    6.4315	 -0.005000	  0.027500	  1.008000	   -0.390000	   -0.130000	    0.310000	   24.792969
    6.4415	 -0.007500	  0.027500	  1.008000	   -0.230000	   -0.090000	    0.270000	   24.796875
    6.4515	 -0.005500	  0.027000	  1.007000	   -0.440000	   -0.110000	    0.230000	   24.796875
    6.4615	 -0.006500	  0.027500	  1.005000	   -0.380000	   -0.210000	    0.310000	   24.789063
    6.4716	 -0.006500	  0.025500	  1.007000	   -0.340000	   -0.170000	    0.320000	   24.800781
    6.4815	 -0.002000	  0.025000	  1.005500	   -0.450000	   -0.060000	    0.350000	   24.800781
    6.4915	 -0.000500	  0.025000	  1.005500	   -0.490000	   -0.180000	    0.260000	   24.804688
    6.5015	  0.000000	  0.026500	  1.007000	   -0.430000	   -0.310000	    0.380000	   24.789063
    6.5115	  0.001000	  0.029500	  1.004500	   -0.300000	   -0.170000	    0.320000	   24.796875
    6.5215	 -0.000500	  0.029500	  1.008000	   -0.370000	   -0.150000	    0.170000	   24.792969
    6.5316	  0.000000	  0.029000	  1.007000	   -0.450000	   -0.130000	    0.330000	   24.812500
    6.5416	 -0.001000	  0.028500	  1.008500	   -0.360000	   -0.250000	    0.330000	   24.820313
    6.5515	 -0.002000	  0.027000	  1.007000	   -0.490000	   -0.150000	    0.170000	   24.792969
    6.5615	 -0.002500	  0.028000	  1.007000	   -0.290000	   -0.250000	    0.230000	   24.792969
    6.5716	 -0.003000	  0.028000	  1.007000	   -0.330000	   -0.170000	    0.220000	   24.781250
    6.5816	  0.000000	  0.026000	  1.008500	   -0.420000	   -0.060000	    0.130000	   24.792969
    6.5915	 -0.001000	  0.026000	  1.005500	   -0.340000	   -0.200000	    0.210000	   24.816406
    6.6015	 -0.004500	  0.027000	  1.008500	   -0.390000	   -0.110000	    0.200000	   24.804688
    6.6116	 -0.002500	  0.026500	  1.006000	   -0.200000	   -0.050000	    0.250000	   24.773438
    6.6216	 -0.002500	  0.026500	  1.007000	   -0.240000	   -0.160000	    0.240000	   24.773438
    6.6316	 -0.004500	  0.023500	  1.007500	   -0.320000	   -0.200000	    0.280000	   24.781250
    6.6416	 -0.005000	  0.024500	  1.006500	   -0.330000	   -0.090000	    0.210000	   24.792969
    6.6516	 -0.003000	  0.025000	  1.007000	   -0.270000	   -0.110000	    0.350000	   24.792969
    6.6616	 -0.003500	  0.027000	  1.007500	   -0.330000	   -0.130000	    0.210000	   24.804688
    6.6716	 -0.003500	  0.028000	  1.005000	   -0.440000	   -0.160000	    0.170000	   24.792969
    6.6816	 -0.001500	  0.029500	  1.007000	   -0.430000	   -0.140000	    0.220000	   24.816406
    6.6916	 -0.000500	  0.031000	  1.006500	   -0.390000	   -0.220000	    0.300000	   24.816406
    6.7016	 -0.000500	  0.029500	  1.004000	   -0.440000	   -0.230000	    0.310000	   24.800781
    6.7116	 -0.001000	  0.029000	  1.007500	   -0.250000	   -0.210000	    0.310000	   24.781250
    6.7216	 -0.000500	  0.028000	  1.008000	   -0.260000	   -0.150000	    0.230000	   24.789063
    6.7316	 -0.002500	  0.027000	  1.007000	   -0.370000	   -0.190000	    0.240000	   24.792969
    6.7416	 -0.004500	  0.025500	  1.008000	   -0.330000	   -0.090000	    0.250000	   24.800781
    6.7516	 -0.002500	  0.027500	  1.008000	   -0.440000	   -0.170000	    0.320000	   24.792969
    6.7616	 -0.003000	  0.026000	  1.008000	   -0.400000	   -0.100000	    0.220000	   24.808594
    6.7716	 -0.004000	  0.028500	  1.009000	   -0.380000	   -0.270000	    0.260000	   24.781250
    6.7816	 -0.002500	  0.027500	  1.007500	   -0.500000	   -0.230000	    0.300000	   24.781250
    6.7916	 -0.001500	  0.028000	  1.008000	   -0.380000	   -0.160000	    0.340000	   24.792969
    6.8016	 -0.003000	  0.028500	  1.006500	   -0.330000	   -0.190000	    0.300000	   24.785156
    6.8116	 -0.001000	  0.027000	  1.008500	   -0.360000	   -0.140000	    0.300000	   24.773438
    6.8216	 -0.001500	  0.029000	  1.008000	   -0.430000	   -0.090000	    0.140000	   24.785156
    6.8316	 -0.003000	  0.029000	  1.007500	   -0.330000	   -0.020000	    0.210000	   24.777344
    6.8416	 -0.002500	  0.029000	  1.008000	   -0.310000	   -0.210000	    0.270000	   24.785156
    6.8516	  0.000000	  0.028500	  1.008500	   -0.370000	   -0.190000	    0.190000	   24.796875
    6.8616	 -0.001000	  0.027000	  1.007000	   -0.390000	    0.030000	    0.220000	   24.808594
    6.8716	 -0.001500	  0.027000	  1.006500	   -0.390000	   -0.090000	    0.230000	   24.804688
    6.8816	  0.000000	  0.025500	  1.005500	   -0.470000	   -0.200000	    0.210000	   24.816406
    6.8916	 -0.001000	  0.026000	  1.007000	   -0.430000	   -0.160000	    0.220000	   24.796875
    6.9016	 -0.003000	  0.025000	  1.005500	   -0.300000	   -0.090000	    0.250000	   24.792969
    6.9116	 -0.003000	  0.024500	  1.006500	   -0.370000	    0.040000	    0.330000	   24.796875
    6.9216	 -0.004000	  0.023500	  1.006500	   -0.420000	   -0.230000	    0.230000	   24.804688
    6.9320	 -0.005000	  0.025000	  1.006000	   -0.350000	   -0.210000	    0.260000	   24.804688
    6.9416	 -0.005000	  0.026500	  1.005500	   -0.410000	   -0.140000	    0.160000	   24.808594
    6.9516	 -0.004500	  0.025500	  1.007000	   -0.350000	   -0.130000	    0.240000	   24.808594
    6.9616	 -0.005000	  0.026000	  1.005000	   -0.480000	   -0.230000	    0.300000	   24.800781
    6.9716	 -0.003500	  0.026500	  1.006000	   -0.360000	   -0.210000	    0.370000	   24.777344
    6.9816	 -0.002000	  0.027500	  1.006000	   -0.390000	   -0.070000	    0.280000	   24.777344
    6.9916	 -0.003000	  0.027500	  1.005500	   -0.360000	   -0.190000	    0.390000	   24.789063
    7.0016	 -0.002000	  0.029000	  1.005500	   -0.480000	   -0.080000	    0.320000	   24.777344
    7.0116	 -0.000500	  0.028000	  1.006500	   -0.320000	   -0.160000	    0.220000	   24.769531
    7.0216	 -0.002000	  0.028500	  1.006500	   -0.330000	   -0.100000	    0.340000	   24.789063
    7.0316	 -0.001500	  0.027500	  1.007500	   -0.380000	   -0.150000	    0.310000	   24.789063
    7.0416	 -0.001000	  0.029500	  1.006500	   -0.330000	   -0.070000	    0.430000	   24.812500
    7.0516	 -0.001000	  0.028000	  1.008500	   -0.330000	   -0.150000	    0.210000	   24.808594
    7.0616	 -0.003000	  0.029500	  1.007500	   -0.320000	   -0.070000	    0.260000	   24.792969
    7.0716	 -0.002000	  0.028500	  1.008500	   -0.350000	   -0.190000	    0.290000	   24.820313
    7.0816	 -0.001000	  0.026000	  1.007500	   -0.270000	   -0.240000	    0.300000	   24.816406
    7.0916	 -0.001000	  0.027500	  1.009000	   -0.330000	   -0.290000	    0.350000	   24.800781
    7.1016	 -0.004000	  0.026500	  1.007500	   -0.290000	   -0.150000	    0.240000	   24.789063
    7.1116	 -0.002000	  0.026000	  1.010000	   -0.400000	   -0.050000	    0.200000	   24.812500
    7.1216	  0.001000	  0.027000	  1.006500	   -0.370000	   -0.150000	    0.280000	   24.812500
    7.1316	 -0.006000	  0.027500	  1.008000	   -0.340000	   -0.200000	    0.280000	   24.777344
    7.1416	 -0.004500	  0.026500	  1.009500	   -0.340000	   -0.100000	    0.210000	   24.800781
    7.1516	  0.003000	  0.027000	  1.006500	   -0.440000	   -0.210000	    0.310000	   24.785156
    7.1616	 -0.003500	  0.026500	  1.006500	   -0.310000	   -0.170000	    0.280000	   24.781250
    7.1716	 -0.005500	  0.028500	  1.009000	   -0.500000	   -0.170000	    0.320000	   24.796875
    7.1816	  0.001500	  0.025500	  1.005500	   -0.340000	   -0.100000	    0.230000	   24.781250
    7.1916	 -0.002000	  0.026000	  1.005500	   -0.340000	   -0.180000	    0.210000	   24.808594
    7.2016	 -0.006500	  0.027500	  1.007000	   -0.420000	   -0.220000	    0.350000	   24.789063
    7.2116	 -0.001500	  0.027500	  1.009000	   -0.340000	    0.000000	    0.290000	   24.796875
    7.2216	 -0.000500	  0.028500	  1.007000	   -0.330000	   -0.110000	    0.260000	   24.777344
    7.2316	 -0.005000	  0.028000	  1.006000	   -0.400000	   -0.100000	    0.230000	   24.769531
    7.2416	 -0.004500	  0.026500	  1.007000	   -0.330000	   -0.300000	    0.370000	   24.765625
    7.2516	 -0.000500	  0.027500	  1.006000	   -0.350000	   -0.040000	    0.280000	   24.781250
    7.2616	 -0.003000	  0.027500	  1.005500	   -0.290000	   -0.240000	    0.290000	   24.789063
    7.2716	 -0.005000	  0.027500	  1.008000	   -0.410000	   -0.080000	    0.330000	   24.808594
    7.2816	  0.001000	  0.027500	  1.006500	   -0.310000	   -0.090000	    0.290000	   24.843750
    7.2916	 -0.000500	  0.027500	  1.006500	   -0.350000	   -0.110000	    0.260000	   24.808594
    7.3016	 -0.004000	  0.028500	  1.007000	   -0.450000	   -0.140000	    0.290000	   24.796875
    7.3116	  0.000000	  0.027500	  1.007000	   -0.320000	   -0.050000	    0.230000	   24.808594
    7.3216	 -0.001500	  0.027500	  1.005500	   -0.350000	   -0.180000	    0.340000	   24.812500
    7.3316	 -0.005000	  0.027000	  1.007000	   -0.440000	   -0.150000	    0.230000	   24.808594
    7.3416	 -0.004000	  0.026000	  1.007000	   -0.350000	   -0.130000	    0.430000	   24.816406
    7.3516	 -0.002500	  0.026500	  1.008500	   -0.340000	   -0.210000	    0.290000	   24.816406
    7.3616	 -0.004500	  0.027500	  1.006500	   -0.470000	   -0.160000	    0.280000	   24.785156
    7.3716	 -0.004500	  0.027000	  1.005000	   -0.290000	   -0.120000	    0.240000	   24.781250
    7.3816	 -0.002500	  0.027500	  1.008500	   -0.320000	   -0.120000	    0.210000	   24.796875
    7.3916	 -0.003000	  0.026500	  1.006500	   -0.370000	   -0.220000	    0.240000	   24.808594
    7.4016	 -0.005000	  0.027000	  1.006000	   -0.440000	   -0.070000	    0.160000	   24.828125
    7.4116	 -0.002500	  0.026500	  1.009500	   -0.340000	   -0.160000	    0.290000	   24.808594
    7.4216	 -0.002500	  0.026000	  1.006500	   -0.350000	   -0.230000	    0.230000	   24.804688
    7.4316	 -0.003000	  0.026000	  1.005500	   -0.480000	   -0.160000	    0.210000	   24.785156
    7.4416	 -0.003000	  0.027000	  1.007500	   -0.340000	    0.050000	    0.240000	   24.796875
    7.4516	 -0.002000	  0.026000	  1.004500	   -0.350000	   -0.120000	    0.230000	   24.808594
    7.4616	 -0.004000	  0.027000	  1.005500	   -0.370000	   -0.050000	    0.360000	   24.808594
    7.4716	 -0.003000	  0.027500	  1.006500	   -0.180000	   -0.070000	    0.400000	   24.800781
    7.4816	 -0.003500	  0.027000	  1.006500	   -0.390000	   -0.180000	    0.220000	   24.800781
    7.4916	 -0.005000	  0.029000	  1.007500	   -0.330000	   -0.240000	    0.340000	   24.808594
    7.5016	 -0.003500	  0.026500	  1.006000	   -0.360000	   -0.160000	    0.140000	   24.792969
    7.5116	 -0.003500	  0.029500	  1.006500	   -0.380000	   -0.130000	    0.320000	   24.781250
    7.5216	 -0.003500	  0.027000	  1.006500	   -0.340000	   -0.130000	    0.350000	   24.808594
    7.5316	 -0.002000	  0.030000	  1.006000	   -0.400000	   -0.150000	    0.330000	   24.816406
    7.5416	 -0.002000	  0.028500	  1.006500	   -0.290000	   -0.090000	    0.300000	   24.804688
    7.5516	 -0.002500	  0.029500	  1.005500	   -0.380000	   -0.190000	    0.190000	   24.796875
    7.5616	 -0.002500	  0.029000	  1.005500	   -0.330000	   -0.060000	    0.100000	   24.792969
    7.5716	 -0.002500	  0.028500	  1.006000	   -0.400000	   -0.210000	    0.320000	   24.785156
    7.5817	 -0.003000	  0.028500	  1.006500	   -0.380000	   -0.090000	    0.250000	   24.804688
    7.5916	 -0.002500	  0.027000	  1.008000	   -0.210000	   -0.070000	    0.250000	   24.804688
    7.6016	 -0.002000	  0.028500	  1.008500	   -0.350000	   -0.160000	    0.210000	   24.808594
    7.6116	 -0.004500	  0.028000	  1.004000	   -0.240000	   -0.160000	    0.260000	   24.765625
    7.6216	 -0.000500	  0.026500	  1.007500	   -0.390000	   -0.190000	    0.120000	   24.765625
    7.6316	 -0.002500	  0.027000	  1.008500	   -0.340000	   -0.160000	    0.260000	   24.781250
    7.6416	 -0.003000	  0.028000	  1.006000	   -0.430000	   -0.210000	    0.240000	   24.808594
    7.6516	 -0.001500	  0.027000	  1.007500	   -0.400000	    0.000000	    0.280000	   24.804688
    7.6616	 -0.001000	  0.026500	  1.010500	   -0.450000	   -0.090000	    0.240000	   24.781250
    7.6716	 -0.003000	  0.025500	  1.007000	   -0.390000	   -0.150000	    0.130000	   24.800781
    7.6817	 -0.002500	  0.027500	  1.008000	   -0.400000	   -0.130000	    0.190000	   24.820313
    7.6916	 -0.001500	  0.026000	  1.009000	   -0.460000	   -0.060000	    0.270000	   24.804688
    7.7016	 -0.002500	  0.027000	  1.006000	   -0.340000	   -0.150000	    0.290000	   24.785156
    7.7116	 -0.004000	  0.027000	  1.007500	   -0.250000	   -0.200000	    0.260000	   24.785156
    7.7216	 -0.003000	  0.026000	  1.007000	   -0.350000	   -0.060000	    0.110000	   24.804688
    7.7316	 -0.003000	  0.026500	  1.005500	   -0.400000	   -0.160000	    0.240000	   24.808594
    7.7416	 -0.003500	  0.026500	  1.007000	   -0.320000	   -0.200000	    0.210000	   24.804688
    7.7516	 -0.001500	  0.027500	  1.006000	   -0.330000	   -0.160000	    0.290000	   24.781250
    7.7616	 -0.003000	  0.026500	  1.005500	   -0.400000	   -0.110000	    0.300000	   24.781250
    7.7716	 -0.003000	  0.029000	  1.006000	   -0.320000	   -0.200000	    0.240000	   24.792969
    7.7817	 -0.001000	  0.028000	  1.006000	   -0.300000	   -0.160000	    0.240000	   24.800781
    7.7916	 -0.001000	  0.027500	  1.006500	   -0.330000	   -0.180000	    0.300000	   24.804688
    7.8016	 -0.001500	  0.029500	  1.007000	   -0.370000	   -0.150000	    0.100000	   24.816406
    7.8116	  0.000000	  0.028000	  1.006000	   -0.430000	   -0.120000	    0.260000	   24.808594
    7.8216	 -0.000500	  0.027000	  1.005500	   -0.380000	   -0.210000	    0.260000	   24.796875
    7.8316	 -0.000500	  0.028500	  1.007000	   -0.380000	   -0.120000	    0.200000	   24.808594
    7.8416	 -0.000500	  0.027000	  1.008500	   -0.250000	   -0.060000	    0.170000	   24.792969
    7.8516	  0.001000	  0.026000	  1.006500	   -0.390000	   -0.050000	    0.180000	   24.792969
    7.8616	 -0.001500	  0.027500	  1.008000	   -0.520000	   -0.130000	    0.270000	   24.792969
    7.8716	 -0.001500	  0.026000	  1.008000	   -0.350000	   -0.140000	    0.240000	   24.773438
    7.8816	 -0.001500	  0.026500	  1.007000	   -0.410000	   -0.200000	    0.260000	   24.796875
    7.8916	 -0.001000	  0.026500	  1.008000	   -0.270000	   -0.220000	    0.150000	   24.816406
    7.9016	 -0.001500	  0.025500	  1.009500	   -0.430000	   -0.180000	    0.250000	   24.796875
    7.9116	 -0.003000	  0.025500	  1.006000	   -0.310000	   -0.040000	    0.310000	   24.789063
    7.9216	 -0.001500	  0.026000	  1.007000	   -0.340000	   -0.150000	    0.300000	   24.800781
    7.9316	 -0.002000	  0.026500	  1.007000	   -0.330000	   -0.130000	    0.160000	   24.808594
    7.9420	 -0.002000	  0.026500	  1.007000	   -0.410000	   -0.100000	    0.350000	   24.808594
    7.9516	 -0.002500	  0.027000	  1.008000	   -0.310000	    0.040000	    0.260000	   24.808594
    7.9616	 -0.001500	  0.028000	  1.008000	   -0.370000	   -0.190000	    0.220000	   24.804688
    7.9716	 -0.002000	  0.027500	  1.007000	   -0.430000	   -0.140000	    0.290000	   24.816406
    7.9817	 -0.002500	  0.027500	  1.005000	   -0.420000	    0.010000	    0.210000	   24.796875
    7.9916	 -0.003000	  0.028000	  1.007500	   -0.390000	   -0.140000	    0.180000	   24.792969
    8.0016	 -0.003500	  0.027500	  1.007000	   -0.380000	   -0.170000	    0.290000	   24.789063
    8.0116	 -0.003500	  0.028500	  1.007000	   -0.510000	   -0.200000	    0.270000	   24.781250
    8.0216	 -0.003000	  0.028000	  1.007500	   -0.350000	   -0.040000	    0.270000	   24.792969
    8.0316	 -0.002500	  0.028000	  1.006500	   -0.320000	   -0.130000	    0.300000	   24.796875
    8.0416	 -0.003500	  0.028500	  1.006500	   -0.400000	   -0.030000	    0.200000	   24.792969
    8.0516	 -0.002500	  0.028000	  1.005500	   -0.370000	   -0.180000	    0.310000	   24.789063
    8.0616	 -0.003500	  0.028000	  1.005500	   -0.350000	   -0.260000	    0.190000	   24.785156
    8.0716	 -0.003500	  0.029000	  1.009000	   -0.280000	   -0.110000	    0.280000	   24.796875
    8.0817	 -0.003500	  0.028000	  1.006000	   -0.420000	   -0.120000	    0.250000	   24.785156
    8.0916	 -0.003500	  0.027000	  1.006000	   -0.510000	   -0.150000	    0.150000	   24.792969
    8.1016	 -0.004000	  0.027500	  1.007500	   -0.370000	   -0.180000	    0.270000	   24.796875
    8.1116	 -0.002500	  0.027000	  1.007000	   -0.260000	   -0.140000	    0.200000	   24.777344
    8.1216	 -0.004000	  0.028000	  1.006500	   -0.410000	   -0.100000	    0.140000	   24.796875
    8.1317	 -0.004500	  0.026500	  1.008500	   -0.500000	   -0.180000	    0.250000	   24.792969
    8.1416	 -0.003000	  0.027000	  1.007500	   -0.410000	    0.050000	    0.150000	   24.773438
    8.1516	 -0.003000	  0.028000	  1.005500	   -0.290000	   -0.180000	    0.200000	   24.808594
    8.1616	 -0.004500	  0.026000	  1.005500	   -0.380000	   -0.060000	    0.250000	   24.792969
    8.1716	 -0.003500	  0.027500	  1.009000	   -0.300000	   -0.160000	    0.130000	   24.804688
    8.1817	 -0.002000	  0.026500	  1.004500	   -0.330000	   -0.140000	    0.290000	   24.800781
    8.1916	 -0.005000	  0.026000	  1.007500	   -0.350000	   -0.160000	    0.180000	   24.812500
    8.2017	 -0.003500	  0.025500	  1.007000	   -0.500000	   -0.120000	    0.220000	   24.777344
    8.2116	 -0.002500	  0.027000	  1.005500	   -0.410000	   -0.070000	    0.130000	   24.781250
    8.2216	 -0.004000	  0.026000	  1.005500	   -0.380000	   -0.240000	    0.310000	   24.804688
    8.2317	 -0.004500	  0.026000	  1.007000	   -0.360000	   -0.110000	    0.200000	   24.800781
    8.2416	 -0.003000	  0.026500	  1.005500	   -0.470000	   -0.180000	    0.090000	   24.789063
    8.2517	 -0.003000	  0.027500	  1.006500	   -0.390000	   -0.260000	    0.250000	   24.789063
    8.2616	 -0.004000	  0.027000	  1.007000	   -0.420000	   -0.150000	    0.260000	   24.777344
    8.2716	 -0.002500	  0.028500	  1.005500	   -0.410000	   -0.160000	    0.280000	   24.792969
    8.2817	 -0.001500	  0.026500	  1.005500	   -0.420000	   -0.130000	    0.300000	   24.812500
    8.2917	 -0.003000	  0.029000	  1.007000	   -0.310000	   -0.190000	    0.220000	   24.781250
    8.3017	 -0.002500	  0.027500	  1.006500	   -0.390000	   -0.260000	    0.190000	   24.777344
    8.3117	 -0.001500	  0.029500	  1.006000	   -0.300000	   -0.220000	    0.280000	   24.789063
    8.3217	 -0.003000	  0.028000	  1.006500	   -0.400000	   -0.220000	    0.230000	   24.777344
    8.3317	 -0.003500	  0.028500	  1.005500	   -0.430000	   -0.100000	    0.250000	   24.789063
    8.3417	 -0.001000	  0.028500	  1.005500	   -0.390000	   -0.200000	    0.210000	   24.808594
    8.3517	 -0.002000	  0.026500	  1.007500	   -0.310000	   -0.210000	    0.250000	   24.812500
    8.3617	 -0.003500	  0.028000	  1.006000	   -0.210000	   -0.240000	    0.240000	   24.785156
    8.3717	 -0.000500	  0.027500	  1.006500	   -0.370000	   -0.120000	    0.360000	   24.792969
    8.3817	 -0.001000	  0.026000	  1.007500	   -0.290000	   -0.350000	    0.270000	   24.777344
    8.3917	 -0.003000	  0.027000	  1.007500	   -0.310000	   -0.200000	    0.300000	   24.789063
    8.4017	 -0.003500	  0.027000	  1.008000	   -0.350000	   -0.200000	    0.180000	   24.781250
    8.4117	 -0.001500	  0.028000	  1.008500	   -0.400000	   -0.210000	    0.220000	   24.769531
    8.4217	 -0.002500	  0.026500	  1.007000	   -0.400000	   -0.130000	    0.300000	   24.789063
    8.4317	 -0.002500	  0.027000	  1.007500	   -0.280000	   -0.250000	    0.270000	   24.781250
    8.4417	 -0.001500	  0.026000	  1.008500	   -0.280000	   -0.130000	    0.180000	   24.781250
    8.4517	 -0.000500	  0.026500	  1.007000	   -0.310000	   -0.160000	    0.320000	   24.777344
    8.4617	 -0.003000	  0.025500	  1.007000	   -0.350000	   -0.150000	    0.330000	   24.785156
    8.4717	 -0.000500	  0.026500	  1.008000	   -0.350000	   -0.130000	    0.350000	   24.789063
    8.4817	 -0.000500	  0.028000	  1.007500	   -0.320000	   -0.110000	    0.300000	   24.812500
    8.4917	 -0.002500	  0.027000	  1.007000	   -0.430000	   -0.190000	    0.240000	   24.796875
    8.5017	 -0.000500	  0.027500	  1.011000	   -0.310000	   -0.090000	    0.270000	   24.785156
    8.5117	  0.000500	  0.026000	  1.004500	   -0.320000	   -0.120000	    0.300000	   24.816406
    8.5217	 -0.002500	  0.027500	  1.009000	   -0.340000	   -0.040000	    0.240000	   24.824219
    8.5317	 -0.003000	  0.027000	  1.009000	   -0.450000	   -0.110000	    0.270000	   24.804688
    8.5417	  0.000000	  0.028000	  1.008000	   -0.400000	   -0.180000	    0.220000	   24.796875
    8.5517	 -0.001500	  0.027000	  1.006000	   -0.370000	   -0.090000	    0.240000	   24.800781
    8.5617	 -0.002000	  0.027500	  1.008000	   -0.250000	   -0.120000	    0.230000	   24.781250
    8.5717	 -0.001000	  0.027500	  1.006500	   -0.340000	   -0.080000	    0.210000	   24.820313
    8.5817	 -0.000500	  0.026500	  1.006000	   -0.410000	   -0.270000	    0.280000	   24.808594
    8.5917	 -0.001000	  0.027000	  1.007500	   -0.380000	   -0.210000	    0.220000	   24.796875
    8.6017	 -0.001000	  0.027500	  1.005500	   -0.400000	   -0.100000	    0.260000	   24.792969
    8.6117	 -0.000500	  0.027500	  1.008500	   -0.450000	   -0.080000	    0.200000	   24.796875
    8.6217	 -0.002500	  0.027500	  1.007500	   -0.360000	   -0.070000	    0.240000	   24.808594
    8.6317	 -0.002000	  0.026500	  1.007500	   -0.390000	   -0.120000	    0.220000	   24.820313
    8.6417	 -0.002500	  0.025500	  1.005500	   -0.330000	   -0.170000	    0.190000	   24.820313
    8.6517	 -0.003000	  0.025500	  1.010000	   -0.380000	   -0.100000	    0.260000	   24.792969
    8.6617	 -0.004500	  0.026500	  1.005000	   -0.370000	   -0.150000	    0.260000	   24.804688
    8.6717	 -0.003000	  0.027500	  1.006000	   -0.240000	   -0.040000	    0.180000	   24.804688
    8.6817	 -0.003000	  0.027000	  1.009500	   -0.450000	   -0.050000	    0.230000	   24.789063
    8.6917	 -0.005000	  0.027500	  1.006000	   -0.310000	   -0.170000	    0.290000	   24.796875
    8.7017	 -0.003500	  0.027000	  1.006000	   -0.410000	    0.050000	    0.170000	   24.808594
    8.7117	 -0.003000	  0.027500	  1.009500	   -0.430000	   -0.170000	    0.250000	   24.800781
    8.7217	 -0.003000	  0.026500	  1.006000	   -0.320000	   -0.160000	    0.320000	   24.796875
    8.7317	 -0.004500	  0.027000	  1.005500	   -0.250000	   -0.040000	    0.320000	   24.820313
    8.7417	 -0.001500	  0.028000	  1.006500	   -0.360000	   -0.150000	    0.220000	   24.796875
    8.7517	 -0.001500	  0.028500	  1.004000	   -0.430000	    0.010000	    0.280000	   24.800781
    8.7617	 -0.003500	  0.029000	  1.006000	   -0.190000	   -0.180000	    0.300000	   24.796875
    8.7717	 -0.002000	  0.027500	  1.009000	   -0.320000	   -0.090000	    0.280000	   24.808594
    8.7817	 -0.000500	  0.027000	  1.005000	   -0.440000	   -0.250000	    0.280000	   24.781250
    8.7917	 -0.004000	  0.026500	  1.004500	   -0.290000	   -0.080000	    0.290000	   24.773438
    8.8017	 -0.003000	  0.025500	  1.007500	   -0.420000	   -0.120000	    0.280000	   24.785156
    8.8117	 -0.002000	  0.026500	  1.006500	   -0.340000	   -0.090000	    0.200000	   24.800781
    8.8217	 -0.004500	  0.027500	  1.007000	   -0.370000	   -0.010000	    0.150000	   24.785156
    8.8317	 -0.004000	  0.027500	  1.008000	   -0.440000	   -0.080000	    0.300000	   24.781250
    8.8417	 -0.000500	  0.026500	  1.007500	   -0.530000	   -0.160000	    0.340000	   24.796875
    8.8517	 -0.002500	  0.027000	  1.006000	   -0.450000	   -0.170000	    0.320000	   24.828125
    8.8617	 -0.004500	  0.027500	  1.006500	   -0.490000	   -0.160000	    0.260000	   24.828125
    8.8717	 -0.002500	  0.029000	  1.008000	   -0.330000	   -0.170000	    0.220000	   24.808594
    8.8817	 -0.002000	  0.028000	  1.006500	   -0.380000	   -0.080000	    0.330000	   24.789063
    8.8917	 -0.004000	  0.027500	  1.007500	   -0.370000	   -0.260000	    0.290000	   24.773438
    8.9017	 -0.003500	  0.027500	  1.005500	   -0.340000	   -0.120000	    0.240000	   24.796875
    8.9117	 -0.002000	  0.028000	  1.005500	   -0.340000	   -0.120000	    0.220000	   24.773438
    8.9217	 -0.004500	  0.028500	  1.007000	   -0.520000	   -0.050000	    0.270000	   24.761719
    8.9317	 -0.005000	  0.027500	  1.007000	   -0.430000	   -0.230000	    0.180000	   24.789063
    8.9421	 -0.003000	  0.028000	  1.006500	   -0.350000	   -0.260000	    0.250000	   24.789063
    8.9517	 -0.003500	  0.027000	  1.008000	   -0.320000	   -0.200000	    0.340000	   24.816406
    8.9617	 -0.005500	  0.027500	  1.006500	   -0.340000	   -0.130000	    0.210000	   24.796875
    8.9717	 -0.002500	  0.026500	  1.006500	   -0.280000	   -0.140000	    0.150000	   24.781250
    8.9817	 -0.001500	  0.026500	  1.008000	   -0.220000	   -0.060000	    0.280000	   24.808594
    8.9917	 -0.005000	  0.029000	  1.007000	   -0.430000	   -0.100000	    0.210000	   24.808594
    9.0017	 -0.002500	  0.024500	  1.004000	   -0.580000	   -0.070000	    0.220000	   24.816406
    9.0117	 -0.001500	  0.026000	  1.008000	   -0.400000	   -0.240000	    0.250000	   24.796875
    9.0217	 -0.004500	  0.026500	  1.006000	   -0.270000	   -0.230000	    0.260000	   24.769531
    9.0317	 -0.003000	  0.027000	  1.006000	   -0.320000	   -0.110000	    0.210000	   24.785156
    9.0417	 -0.000500	  0.027000	  1.008000	   -0.300000	   -0.210000	    0.210000	   24.808594
    9.0517	 -0.002000	  0.028000	  1.008000	   -0.360000	   -0.170000	    0.240000	   24.781250
    9.0617	 -0.002500	  0.029000	  1.005000	   -0.360000	   -0.060000	    0.300000	   24.769531
    9.0717	 -0.001500	  0.027500	  1.007000	   -0.360000	   -0.140000	    0.250000	   24.796875
    9.0817	 -0.003000	  0.027500	  1.007000	   -0.380000	   -0.240000	    0.330000	   24.800781
    9.0917	 -0.003500	  0.027000	  1.007000	   -0.310000	   -0.210000	    0.290000	   24.804688
    9.1017	 -0.001500	  0.026000	  1.007500	   -0.300000	   -0.130000	    0.200000	   24.800781
    9.1117	 -0.003500	  0.027000	  1.008000	   -0.420000	   -0.040000	    0.160000	   24.800781
    9.1217	 -0.005000	  0.027500	  1.008500	   -0.280000	   -0.170000	    0.180000	   24.792969
    9.1317	 -0.003000	  0.026000	  1.006000	   -0.360000	   -0.170000	    0.170000	   24.785156
    9.1417	 -0.003500	  0.027500	  1.007000	   -0.420000	   -0.170000	    0.220000	   24.777344
    9.1517	 -0.003500	  0.026000	  1.004500	   -0.490000	   -0.330000	    0.220000	   24.792969
    9.1617	 -0.003000	  0.026500	  1.006500	   -0.310000	   -0.300000	    0.300000	   24.789063
    9.1717	 -0.001500	  0.027000	  1.006000	   -0.410000	   -0.100000	    0.310000	   24.812500
    9.1817	 -0.004000	  0.027000	  1.005500	   -0.350000	   -0.220000	    0.250000	   24.792969
    9.1917	 -0.002500	  0.028000	  1.007000	   -0.440000	   -0.060000	    0.260000	   24.792969
    9.2017	 -0.001000	  0.027000	  1.007000	   -0.380000	   -0.220000	    0.280000	   24.820313
    9.2117	 -0.002000	  0.027000	  1.004000	   -0.320000	   -0.180000	    0.250000	   24.792969
    9.2217	 -0.002500	  0.028000	  1.006000	   -0.290000	   -0.110000	    0.300000	   24.800781
    9.2317	 -0.000500	  0.028000	  1.008500	   -0.350000	   -0.290000	    0.280000	   24.792969
    9.2417	 -0.001000	  0.028000	  1.005500	   -0.260000	   -0.190000	    0.240000	   24.777344
    9.2517	 -0.002000	  0.028000	  1.008000	   -0.470000	   -0.190000	    0.330000	   24.761719
    9.2617	 -0.001000	  0.026500	  1.007000	   -0.340000	   -0.180000	    0.330000	   24.785156
    9.2717	 -0.001500	  0.028000	  1.004500	   -0.300000	   -0.130000	    0.200000	   24.789063
    9.2817	 -0.001500	  0.027000	  1.008000	   -0.380000	   -0.320000	    0.190000	   24.773438
    9.2917	 -0.003500	  0.032500	  1.009500	   -0.400000	   -0.230000	    0.280000	   24.773438
    9.3017	 -0.007000	  0.029000	  1.004500	   -0.390000	   -0.200000	    0.300000	   24.789063
    9.3117	 -0.009000	  0.028000	  1.011000	   -0.390000	   -0.260000	    0.300000	   24.816406
    9.3217	  0.002000	  0.024000	  1.009000	   -0.330000	    0.000000	    0.180000	   24.804688
    9.3317	  0.006000	  0.021500	  0.999500	   -0.490000	   -0.160000	    0.260000	   24.804688
    9.3417	 -0.003000	  0.024000	  1.010000	   -0.280000	   -0.230000	    0.300000	   24.800781
    9.3517	  0.004500	  0.026000	  1.007000	   -0.300000	   -0.010000	    0.200000	   24.785156
    9.3617	  0.007000	  0.028000	  1.005500	   -0.370000	   -0.240000	    0.210000	   24.777344
    9.3717	 -0.004500	  0.029000	  1.015000	   -0.420000	   -0.140000	    0.260000	   24.769531
    9.3818	 -0.000500	  0.031500	  1.012000	   -0.240000	   -0.040000	    0.290000	   24.816406
    9.3917	  0.003500	  0.028000	  1.005000	   -0.390000	   -0.130000	    0.290000	   24.800781
    9.4017	 -0.008000	  0.025500	  1.012000	   -0.250000	   -0.100000	    0.250000	   24.828125
    9.4117	 -0.006000	  0.023500	  1.007000	   -0.370000	   -0.080000	    0.170000	   24.824219
    9.4217	 -0.003000	  0.024500	  1.003000	   -0.410000	   -0.210000	    0.210000	   24.816406
    9.4317	 -0.007500	  0.024500	  1.011000	   -0.430000	   -0.190000	    0.130000	   24.824219
    9.4417	 -0.005500	  0.027000	  1.008000	   -0.380000	   -0.040000	    0.230000	   24.789063
    9.4517	 -0.002500	  0.026500	  1.003000	   -0.360000	   -0.120000	    0.260000	   24.781250
    9.4617	 -0.005000	  0.026000	  1.008500	   -0.300000	   -0.210000	    0.290000	   24.792969
    9.4717	 -0.004500	  0.027500	  1.005000	   -0.370000	   -0.010000	    0.340000	   24.781250
    9.4818	 -0.001000	  0.025500	  0.999500	   -0.290000	   -0.100000	    0.210000	   24.781250
    9.4917	 -0.001500	  0.026500	  1.008500	   -0.250000	   -0.230000	    0.390000	   24.789063
    9.5017	 -0.004500	  0.027000	  1.006000	   -0.360000	   -0.180000	    0.320000	   24.800781
    9.5117	 -0.001500	  0.028000	  1.002000	   -0.370000	   -0.160000	    0.240000	   24.796875
    9.5217	 -0.001500	  0.029500	  1.011000	   -0.380000	   -0.320000	    0.200000	   24.812500
    9.5317	 -0.001000	  0.032500	  1.008500	   -0.470000	   -0.040000	    0.390000	   24.800781
    9.5417	 -0.001000	  0.031500	  1.004000	   -0.390000	   -0.210000	    0.350000	   24.796875
    9.5517	 -0.002000	  0.030500	  1.009500	   -0.440000	   -0.220000	    0.250000	   24.812500
    9.5617	  0.000500	  0.030000	  1.006000	   -0.360000	    0.030000	    0.160000	   24.820313
    9.5717	 -0.001000	  0.029000	  1.002500	   -0.330000	   -0.060000	    0.180000	   24.820313
    9.5818	 -0.003000	  0.026500	  1.010500	   -0.270000	   -0.200000	    0.270000	   24.820313
    9.5917	 -0.001000	  0.027500	  1.008500	   -0.400000	   -0.020000	    0.260000	   24.800781
    9.6017	 -0.001000	  0.025500	  1.006000	   -0.450000	   -0.280000	    0.250000	   24.792969
    9.6117	 -0.004000	  0.026000	  1.010500	   -0.370000	   -0.070000	    0.190000	   24.800781
    9.6217	 -0.004000	  0.025000	  1.009000	   -0.470000	   -0.200000	    0.190000	   24.777344
    9.6317	 -0.003000	  0.025000	  1.007000	   -0.310000	   -0.170000	    0.270000	   24.792969
    9.6417	 -0.003000	  0.025500	  1.011000	   -0.310000	   -0.140000	    0.160000	   24.781250
    9.6517	 -0.003500	  0.026000	  1.009000	   -0.480000	   -0.200000	    0.210000	   24.789063
    9.6617	 -0.003500	  0.026500	  1.006500	   -0.470000	   -0.150000	    0.230000	   24.789063
    9.6717	 -0.003000	  0.025000	  1.011000	   -0.390000	   -0.160000	    0.210000	   24.785156
    9.6818	 -0.002000	  0.026500	  1.007500	   -0.350000	   -0.120000	    0.250000	   24.812500
    9.6917	 -0.001000	  0.026000	  1.004500	   -0.440000	   -0.070000	    0.320000	   24.820313
    9.7017	 -0.002000	  0.027000	  1.007000	   -0.450000	   -0.110000	    0.240000	   24.804688
    9.7117	 -0.003500	  0.026500	  1.006500	   -0.450000	   -0.100000	    0.190000	   24.796875
    9.7217	 -0.001500	  0.027000	  1.003000	   -0.430000	   -0.230000	    0.240000	   24.792969
    9.7318	 -0.002000	  0.025500	  1.009000	   -0.310000	   -0.120000	    0.270000	   24.792969
    9.7417	 -0.004500	  0.026500	  1.005500	   -0.350000	   -0.020000	    0.230000	   24.808594
    9.7517	 -0.002500	  0.027000	  1.004000	   -0.340000	   -0.120000	    0.210000	   24.808594
    9.7617	 -0.002500	  0.027000	  1.007000	   -0.310000	   -0.120000	    0.270000	   24.800781
    9.7717	 -0.004000	  0.028000	  1.006500	   -0.360000	   -0.180000	    0.200000	   24.796875
    9.7818	 -0.005000	  0.027000	  1.005000	   -0.370000	    0.080000	    0.300000	   24.769531
    9.7917	 -0.003500	  0.028500	  1.007000	   -0.400000	   -0.060000	    0.230000	   24.765625
    9.8017	 -0.004500	  0.027500	  1.006500	   -0.410000	   -0.210000	    0.300000	   24.785156
    9.8117	 -0.005000	  0.027500	  1.005000	   -0.310000	   -0.090000	    0.190000	   24.792969
    9.8217	 -0.003000	  0.027500	  1.006500	   -0.330000	   -0.220000	    0.240000	   24.796875
    9.8317	 -0.003500	  0.028500	  1.004500	   -0.210000	   -0.220000	    0.270000	   24.792969
    9.8417	 -0.002000	  0.030000	  1.007000	   -0.290000	   -0.130000	    0.280000	   24.796875
    9.8517	 -0.001500	  0.029000	  1.010000	   -0.320000	   -0.070000	    0.280000	   24.804688
    9.8617	 -0.002000	  0.029500	  1.005000	   -0.350000	   -0.140000	    0.280000	   24.792969
    9.8717	 -0.002000	  0.027500	  1.007500	   -0.320000	   -0.190000	    0.150000	   24.789063
    9.8817	 -0.002000	  0.028500	  1.008000	   -0.370000	   -0.160000	    0.160000	   24.796875
    9.8917	 -0.002000	  0.027500	  1.006500	   -0.350000	   -0.210000	    0.260000	   24.808594
    9.9017	 -0.005000	  0.027500	  1.007000	   -0.390000	   -0.160000	    0.290000	   24.800781
    9.9117	 -0.003000	  0.025500	  1.006000	   -0.410000	   -0.150000	    0.250000	   24.777344
    9.9217	 -0.001500	  0.026000	  1.008000	   -0.410000	   -0.080000	    0.220000	   24.769531
    9.9317	  0.000500	  0.025000	  1.005000	   -0.470000	   -0.210000	    0.170000	   24.789063
    9.9421	  0.000000	  0.026500	  1.010000	   -0.340000	   -0.160000	    0.190000	   24.792969
    9.9518	  0.000000	  0.025500	  1.008000	   -0.420000	   -0.150000	    0.170000	   24.796875
    9.9618	 -0.002000	  0.026500	  1.007000	   -0.320000	   -0.200000	    0.250000	   24.796875
    9.9717	 -0.005000	  0.025000	  1.011000	   -0.330000	   -0.110000	    0.170000	   24.792969
    9.9818	 -0.004500	  0.026000	  1.007000	   -0.410000	   -0.220000	    0.230000	   24.781250
    9.9917	 -0.004500	  0.026000	  1.007000	   -0.370000	   -0.090000	    0.240000	   24.785156
   10.0018	 -0.006500	  0.025500	  1.009000	   -0.270000	   -0.160000	    0.320000	   24.781250
   10.0118	 -0.004000	  0.026000	  1.005500	   -0.330000	   -0.040000	    0.250000	   24.785156
   10.0218	 -0.002000	  0.026000	  1.005500	   -0.440000	   -0.250000	    0.370000	   24.781250
   10.0318	 -0.004000	  0.026000	  1.008000	   -0.370000	   -0.110000	    0.180000	   24.789063
   10.0418	 -0.002000	  0.027000	  1.006500	   -0.420000	   -0.190000	    0.300000	   24.789063
   10.0518	 -0.001000	  0.028000	  1.005000	   -0.310000	   -0.290000	    0.330000	   24.808594
   10.0618	 -0.002000	  0.028000	  1.006000	   -0.260000	   -0.160000	    0.270000	   24.792969
   10.0718	 -0.002000	  0.028000	  1.005500	   -0.360000	   -0.140000	    0.280000	   24.792969
   10.0818	 -0.000500	  0.030000	  1.004500	   -0.300000	   -0.070000	    0.250000	   24.800781
   10.0918	 -0.001000	  0.029000	  1.009000	   -0.290000	   -0.090000	    0.340000	   24.812500
   10.1018	 -0.001500	  0.029000	  1.006500	   -0.290000	   -0.150000	    0.180000	   24.792969
   10.1118	  0.000000	  0.029000	  1.006500	   -0.430000	   -0.160000	    0.240000	   24.777344
   10.1218	 -0.001000	  0.029500	  1.006000	   -0.310000	   -0.240000	    0.210000	   24.789063
   10.1318	 -0.000500	  0.029500	  1.007500	   -0.380000	   -0.180000	    0.100000	   24.792969
   10.1418	  0.000000	  0.029000	  1.007000	   -0.300000	   -0.180000	    0.160000	   24.800781
   10.1518	  0.000000	  0.030500	  1.007000	   -0.450000	   -0.100000	    0.160000	   24.800781
   10.1618	 -0.002500	  0.027000	  1.008000	   -0.250000	   -0.040000	    0.270000	   24.820313
   10.1718	 -0.001000	  0.027500	  1.007000	   -0.290000	   -0.070000	    0.230000	   24.832031
   10.1818	 -0.002500	  0.025000	  1.007500	   -0.380000	   -0.100000	    0.240000	   24.800781
   10.1918	 -0.004000	  0.025000	  1.008000	   -0.230000	   -0.060000	    0.280000	   24.785156
   10.2018	 -0.003000	  0.025500	  1.008000	   -0.360000	   -0.070000	    0.160000	   24.781250
   10.2118	 -0.004500	  0.025000	  1.009000	   -0.430000	   -0.180000	    0.260000	   24.808594
   10.2218	 -0.003500	  0.027000	  1.008500	   -0.450000	   -0.160000	    0.450000	   24.796875
   10.2318	 -0.002500	  0.027000	  1.007000	   -0.420000	   -0.170000	    0.230000	   24.773438
   10.2418	 -0.002500	  0.027000	  1.008000	   -0.380000	   -0.050000	    0.260000	   24.785156
   10.2518	 -0.002500	  0.026500	  1.007500	   -0.280000	   -0.170000	    0.310000	   24.796875
   10.2618	 -0.002500	  0.027000	  1.006500	   -0.300000	   -0.150000	    0.200000	   24.808594
   10.2718	 -0.002500	  0.027500	  1.008500	   -0.260000	   -0.040000	    0.260000	   24.800781
   10.2818	 -0.001000	  0.026500	  1.006000	   -0.350000	   -0.220000	    0.200000	   24.777344
   10.2918	 -0.002000	  0.027500	  1.005000	   -0.350000	   -0.010000	    0.230000	   24.785156
   10.3018	 -0.002000	  0.027500	  1.005500	   -0.320000	   -0.160000	    0.330000	   24.796875
   10.3118	  0.000500	  0.027500	  1.007000	   -0.390000	   -0.160000	    0.300000	   24.804688
   10.3218	 -0.001500	  0.028000	  1.006000	   -0.440000	    0.010000	    0.290000	   24.789063
   10.3318	 -0.002500	  0.027500	  1.005500	   -0.310000	   -0.130000	    0.260000	   24.800781
   10.3418	 -0.001500	  0.027000	  1.006000	   -0.500000	   -0.210000	    0.170000	   24.808594
   10.3518	 -0.003500	  0.027000	  1.006500	   -0.420000	   -0.100000	    0.250000	   24.796875
   10.3618	 -0.003500	  0.027000	  1.006000	   -0.370000	   -0.080000	    0.200000	   24.812500
   10.3718	 -0.004000	  0.027000	  1.007000	   -0.360000	    0.090000	    0.210000	   24.800781
   10.3818	 -0.002500	  0.027000	  1.005000	   -0.370000	   -0.150000	    0.300000	   24.792969
   10.3918	 -0.002500	  0.027500	  1.006000	   -0.390000	   -0.270000	    0.210000	   24.789063
   10.4018	 -0.004000	  0.028000	  1.006500	   -0.330000	   -0.170000	    0.300000	   24.785156
   10.4118	 -0.004000	  0.026500	  1.008500	   -0.490000	   -0.160000	    0.230000	   24.800781
   10.4218	 -0.001500	  0.028000	  1.007000	   -0.390000	   -0.120000	    0.250000	   24.792969
   10.4318	 -0.003500	  0.027000	  1.006000	   -0.360000	   -0.160000	    0.180000	   24.785156
   10.4418	 -0.003500	  0.028500	  1.009000	   -0.340000	   -0.190000	    0.260000	   24.781250
   10.4518	 -0.001000	  0.026500	  1.005000	   -0.380000	   -0.070000	    0.230000	   24.785156
   10.4618	 -0.002500	  0.026500	  1.006500	   -0.480000	   -0.160000	    0.230000	   24.777344
   10.4718	 -0.003500	  0.026500	  1.007500	   -0.190000	   -0.170000	    0.290000	   24.792969
   10.4818	 -0.001500	  0.026500	  1.006500	   -0.290000	   -0.050000	    0.180000	   24.796875
   10.4918	 -0.002000	  0.026500	  1.008500	   -0.420000	   -0.150000	    0.250000	   24.781250
   10.5018	 -0.004000	  0.025500	  1.008000	   -0.420000	   -0.210000	    0.330000	   24.812500
   10.5118	 -0.001500	  0.026500	  1.008000	   -0.330000	   -0.120000	    0.290000	   24.816406
   10.5218	 -0.004000	  0.027000	  1.008000	   -0.400000	   -0.200000	    0.340000	   24.789063
   10.5318	 -0.005000	  0.027000	  1.008000	   -0.460000	   -0.070000	    0.270000	   24.796875
   10.5418	 -0.002000	  0.027500	  1.007000	   -0.400000	   -0.140000	    0.240000	   24.781250
   10.5518	 -0.002000	  0.026000	  1.006500	   -0.280000	    0.060000	    0.200000	   24.804688
   10.5618	 -0.002500	  0.027000	  1.005500	   -0.350000	   -0.230000	    0.280000	   24.777344
   10.5718	 -0.002500	  0.028000	  1.007000	   -0.420000	   -0.070000	    0.250000	   24.781250
   10.5818	 -0.001500	  0.029000	  1.006500	   -0.300000	   -0.260000	    0.170000	   24.781250
   10.5918	 -0.003000	  0.028000	  1.007000	   -0.330000	   -0.180000	    0.200000	   24.785156
   10.6018	 -0.002500	  0.028500	  1.005000	   -0.350000	   -0.130000	    0.220000	   24.816406
   10.6118	 -0.002000	  0.027500	  1.007500	   -0.290000	   -0.130000	    0.190000	   24.820313
   10.6218	 -0.003000	  0.027500	  1.007000	   -0.370000	   -0.060000	    0.300000	   24.824219
   10.6318	 -0.003000	  0.027500	  1.005500	   -0.330000	   -0.140000	    0.110000	   24.820313
   10.6418	 -0.003500	  0.027500	  1.005500	   -0.380000	   -0.230000	    0.420000	   24.792969
   10.6518	 -0.004000	  0.027500	  1.006500	   -0.320000	   -0.160000	    0.200000	   24.792969
   10.6618	 -0.002500	  0.027500	  1.006500	   -0.340000	   -0.100000	    0.240000	   24.800781
   10.6718	 -0.001500	  0.028000	  1.007000	   -0.400000	   -0.250000	    0.260000	   24.792969
   10.6818	 -0.002500	  0.027500	  1.007000	   -0.290000	   -0.100000	    0.230000	   24.796875
   10.6918	 -0.002000	  0.026500	  1.008000	   -0.410000	   -0.040000	    0.220000	   24.781250
   10.7018	 -0.002000	  0.027500	  1.005500	   -0.400000	   -0.320000	    0.260000	   24.796875
   10.7118	 -0.001000	  0.027000	  1.009000	   -0.350000	   -0.230000	    0.320000	   24.792969
   10.7218	  0.000000	  0.027500	  1.007500	   -0.420000	   -0.060000	    0.260000	   24.796875
   10.7318	 -0.001000	  0.027500	  1.006000	   -0.290000	   -0.190000	    0.280000	   24.785156
   10.7418	 -0.001500	  0.027500	  1.007500	   -0.340000	   -0.070000	    0.210000	   24.781250
   10.7518	 -0.001000	  0.027500	  1.007000	   -0.330000	   -0.120000	    0.230000	   24.792969
   10.7618	 -0.002500	  0.028000	  1.006000	   -0.270000	   -0.150000	    0.230000	   24.777344
   10.7718	 -0.002000	  0.026500	  1.008500	   -0.360000	   -0.160000	    0.170000	   24.789063
   10.7818	 -0.001500	  0.026500	  1.006500	   -0.350000	   -0.160000	    0.060000	   24.812500
   10.7918	 -0.002000	  0.026500	  1.007500	   -0.360000	   -0.120000	    0.260000	   24.800781
   10.8018	 -0.003000	  0.026000	  1.008000	   -0.380000	   -0.210000	    0.250000	   24.796875
   10.8118	 -0.002000	  0.027000	  1.007500	   -0.480000	   -0.090000	    0.370000	   24.777344
   10.8218	 -0.002000	  0.027000	  1.006000	   -0.450000	   -0.160000	    0.310000	   24.781250
   10.8318	 -0.002000	  0.027000	  1.007500	   -0.320000	   -0.120000	    0.300000	   24.800781
   10.8418	  0.001000	  0.027000	  1.005500	   -0.380000	   -0.140000	    0.260000	   24.777344
   10.8518	  0.001000	  0.028000	  1.007000	   -0.410000	   -0.180000	    0.170000	   24.761719
   10.8618	 -0.001500	  0.027000	  1.006500	   -0.200000	   -0.060000	    0.240000	   24.781250
   10.8718	 -0.000500	  0.028000	  1.008000	   -0.540000	   -0.060000	    0.200000	   24.796875
   10.8818	 -0.000500	  0.027500	  1.007000	   -0.410000	   -0.240000	    0.230000	   24.792969
   10.8918	 -0.004500	  0.027000	  1.009000	   -0.270000	   -0.050000	    0.350000	   24.781250
   10.9018	 -0.005000	  0.027500	  1.007000	   -0.310000	   -0.230000	    0.220000	   24.785156
   10.9118	 -0.003000	  0.027000	  1.006500	   -0.370000	   -0.130000	    0.260000	   24.785156
   10.9218	 -0.005000	  0.026000	  1.009000	   -0.340000	    0.000000	    0.330000	   24.796875
   10.9318	 -0.006500	  0.026500	  1.005500	   -0.240000	   -0.080000	    0.320000	   24.800781
   10.9422	 -0.005500	  0.026500	  1.007000	   -0.340000	   -0.140000	    0.320000	   24.796875
   10.9518	 -0.004500	  0.026500	  1.006500	   -0.340000	   -0.130000	    0.210000	   24.796875
   10.9618	 -0.005000	  0.026500	  1.004000	   -0.370000	   -0.100000	    0.320000	   24.781250
   10.9718	 -0.006000	  0.027000	  1.005500	   -0.310000	   -0.150000	    0.320000	   24.761719
   10.9819	 -0.004000	  0.028500	  1.008500	   -0.460000	   -0.100000	    0.250000	   24.777344
   10.9918	 -0.000500	  0.027500	  1.004000	   -0.290000	   -0.170000	    0.410000	   24.808594
   11.0018	 -0.002000	  0.029500	  1.007000	   -0.490000	   -0.080000	    0.350000	   24.824219
   11.0118	  0.001000	  0.031000	  1.006500	   -0.500000	   -0.150000	    0.270000	   24.804688
   11.0218	  0.002000	  0.031000	  1.004000	   -0.410000	   -0.320000	    0.240000	   24.789063
   11.0318	 -0.002500	  0.030500	  1.007000	   -0.310000	   -0.180000	    0.200000	   24.800781
   11.0418	 -0.000500	  0.030000	  1.007000	   -0.390000	   -0.140000	    0.320000	   24.808594
   11.0518	  0.000000	  0.028500	  1.009000	   -0.300000	   -0.240000	    0.140000	   24.792969
   11.0618	 -0.003000	  0.026500	  1.006500	   -0.420000	   -0.140000	    0.320000	   24.804688
   11.0718	 -0.003000	  0.025000	  1.007000	   -0.490000	   -0.090000	    0.210000	   24.800781
   11.0819	 -0.001000	  0.024500	  1.009500	   -0.370000	   -0.070000	    0.130000	   24.812500
   11.0918	 -0.002000	  0.025000	  1.008000	   -0.310000	   -0.190000	    0.120000	   24.812500
   11.1018	 -0.005000	  0.025000	  1.008500	   -0.250000	   -0.160000	    0.180000	   24.792969
   11.1118	 -0.004500	  0.026500	  1.010000	   -0.310000	   -0.100000	    0.250000	   24.789063
   11.1218	 -0.003500	  0.025500	  1.006500	   -0.440000	   -0.040000	    0.170000	   24.796875
   11.1318	 -0.006000	  0.027500	  1.007000	   -0.370000	   -0.170000	    0.250000	   24.769531
   11.1418	 -0.005500	  0.025000	  1.006000	   -0.330000	   -0.250000	    0.170000	   24.800781
   11.1518	 -0.005000	  0.026500	  1.005000	   -0.340000	   -0.140000	    0.250000	   24.804688
   11.1618	 -0.008000	  0.027000	  1.006000	   -0.300000	   -0.140000	    0.180000	   24.804688
   11.1718	 -0.006500	  0.027000	  1.004500	   -0.420000	   -0.090000	    0.220000	   24.777344
   11.1819	 -0.005500	  0.028000	  1.005000	   -0.270000	   -0.230000	    0.310000	   24.789063
   11.1918	 -0.006000	  0.029000	  1.005500	   -0.340000	   -0.260000	    0.290000	   24.792969
   11.2018	 -0.003000	  0.029000	  1.004000	   -0.520000	   -0.140000	    0.260000	   24.789063
   11.2118	 -0.003500	  0.029500	  1.004000	   -0.280000	   -0.200000	    0.300000	   24.808594
   11.2218	 -0.001000	  0.032500	  1.004000	   -0.300000	   -0.270000	    0.240000	   24.789063
   11.2318	 -0.009500	  0.029500	  1.008000	   -0.360000	   -0.180000	    0.230000	   24.777344
   11.2418	 -0.003500	  0.028500	  1.005000	   -0.420000	   -0.100000	    0.320000	   24.789063
   11.2518	  0.007000	  0.028000	  1.005500	   -0.480000	   -0.220000	    0.300000	   24.777344
   11.2618	 -0.006500	  0.027500	  1.008000	   -0.340000	   -0.190000	    0.270000	   24.777344
   11.2718	 -0.002500	  0.030500	  1.004500	   -0.480000	   -0.140000	    0.210000	   24.808594
   11.2819	  0.008500	  0.026000	  1.007500	   -0.450000	   -0.290000	    0.320000	   24.824219
   11.2918	  0.006500	  0.030500	  1.008000	   -0.350000	   -0.210000	    0.220000	   24.808594
   11.3018	 -0.001000	  0.028000	  1.003000	   -0.390000	   -0.260000	    0.230000	   24.761719
   11.3118	  0.004500	  0.030000	  1.014000	   -0.490000	   -0.150000	    0.180000	   24.789063
   11.3218	  0.008000	  0.027000	  1.008500	   -0.380000	   -0.060000	    0.190000	   24.800781
   11.3318	 -0.005000	  0.029000	  1.009500	   -0.440000	   -0.260000	    0.250000	   24.812500
   11.3418	 -0.007500	  0.022500	  1.015000	   -0.460000	   -0.270000	    0.240000	   24.796875
   11.3518	  0.000000	  0.025500	  1.009000	   -0.320000	   -0.040000	    0.130000	   24.785156
   11.3618	 -0.008000	  0.023000	  1.010000	   -0.430000	   -0.260000	    0.140000	   24.785156
   11.3718	 -0.011000	  0.023500	  1.010000	   -0.300000	   -0.120000	    0.240000	   24.781250
   11.3819	 -0.000500	  0.022000	  1.009000	   -0.450000	    0.030000	    0.170000	   24.765625
   11.3918	 -0.002000	  0.022000	  1.006000	   -0.300000	   -0.150000	    0.170000	   24.765625
   11.4018	 -0.006500	  0.024500	  1.006500	   -0.450000	   -0.120000	    0.280000	   24.761719
   11.4118	  0.000000	  0.023000	  1.007000	   -0.340000	   -0.050000	    0.250000	   24.781250
   11.4218	  0.004000	  0.023000	  1.005000	   -0.310000	   -0.180000	    0.160000	   24.792969
   11.4318	 -0.001500	  0.026500	  1.005000	   -0.360000	   -0.130000	    0.320000	   24.796875
   11.4418	  0.000000	  0.028500	  1.006000	   -0.360000	   -0.140000	    0.240000	   24.808594
   11.4518	  0.004500	  0.029000	  1.006000	   -0.280000	   -0.230000	    0.290000	   24.796875
   11.4618	 -0.000500	  0.030500	  1.007500	   -0.510000	   -0.090000	    0.290000	   24.800781
   11.4718	 -0.005500	  0.030000	  1.006500	   -0.370000	   -0.160000	    0.190000	   24.789063
   11.4819	 -0.003000	  0.030500	  1.007500	   -0.320000	   -0.010000	    0.270000	   24.792969
   11.4918	 -0.003000	  0.029000	  1.006500	   -0.390000	   -0.110000	    0.300000	   24.777344
   11.5018	 -0.008500	  0.029500	  1.006000	   -0.330000	   -0.190000	    0.220000	   24.765625
   11.5118	 -0.007500	  0.028000	  1.002500	   -0.250000	   -0.090000	    0.330000	   24.785156
   11.5218	 -0.002500	  0.028000	  1.006500	   -0.320000	   -0.170000	    0.370000	   24.792969
   11.5318	 -0.005000	  0.028000	  1.004000	   -0.370000	   -0.190000	    0.360000	   24.808594
   11.5418	 -0.006500	  0.025500	  1.004500	   -0.500000	   -0.110000	    0.300000	   24.808594
   11.5518	  0.003500	  0.027500	  1.005500	   -0.440000	   -0.130000	    0.420000	   24.808594
   11.5618	 -0.000500	  0.029000	  1.010000	   -0.390000	   -0.160000	    0.320000	   24.808594
   11.5718	 -0.005000	  0.031000	  1.010000	   -0.280000	   -0.060000	    0.300000	   24.812500
   11.5819	  0.002500	  0.031000	  1.008500	   -0.360000	   -0.040000	    0.320000	   24.792969
   11.5918	  0.007000	  0.030500	  1.011500	   -0.320000	   -0.020000	    0.210000	   24.800781
   11.6018	  0.001500	  0.030500	  1.006000	   -0.430000	   -0.060000	    0.180000	   24.792969
   11.6118	  0.001500	  0.029000	  1.004500	   -0.330000	   -0.210000	    0.170000	   24.800781
   11.6218	  0.005500	  0.027500	  1.010000	   -0.330000	    0.020000	    0.150000	   24.800781
   11.6319	 -0.000500	  0.025500	  1.007000	   -0.280000	   -0.190000	    0.090000	   24.820313
   11.6418	 -0.006500	  0.025000	  1.009500	   -0.320000	   -0.060000	    0.160000	   24.816406
   11.6518	 -0.004500	  0.024500	  1.010500	   -0.320000	   -0.080000	    0.100000	   24.800781
   11.6618	 -0.006000	  0.023500	  1.009000	   -0.420000	   -0.220000	    0.180000	   24.804688
   11.6718	 -0.012000	  0.022500	  1.008000	   -0.270000	   -0.130000	    0.300000	   24.820313
   11.6819	 -0.009500	  0.023000	  1.008500	   -0.330000	   -0.070000	    0.210000	   24.796875
   11.6919	 -0.006000	  0.022000	  1.007000	   -0.470000	   -0.090000	    0.280000	   24.789063
   11.7019	 -0.009500	  0.023000	  1.005000	   -0.360000	   -0.030000	    0.320000	   24.796875
   11.7119	 -0.007500	  0.024500	  1.006000	   -0.540000	   -0.120000	    0.320000	   24.773438
   11.7219	 -0.001500	  0.025500	  1.004000	   -0.380000	   -0.030000	    0.300000	   24.785156
   11.7319	 -0.001000	  0.027500	  1.007000	   -0.440000	    0.000000	    0.350000	   24.804688
   11.7419	 -0.002500	  0.030000	  1.004000	   -0.380000	   -0.070000	    0.310000	   24.757813
   11.7519	  0.003500	  0.030500	  1.006000	   -0.310000	   -0.130000	    0.230000	   24.769531
   11.7619	  0.002000	  0.031500	  1.005500	   -0.420000	   -0.120000	    0.290000	   24.800781
   11.7719	 -0.002000	  0.031000	  1.005000	   -0.440000	   -0.100000	    0.290000	   24.808594
   11.7819	 -0.001000	  0.032000	  1.001500	   -0.290000	   -0.080000	    0.220000	   24.777344
   11.7919	 -0.000500	  0.031000	  1.007500	   -0.330000	   -0.260000	    0.120000	   24.785156
   11.8019	 -0.004000	  0.030500	  1.004500	   -0.360000	   -0.130000	    0.130000	   24.789063
   11.8119	 -0.005500	  0.030000	  1.005500	   -0.360000	   -0.160000	    0.250000	   24.792969
   11.8219	 -0.001500	  0.028000	  1.009000	   -0.350000	   -0.310000	    0.340000	   24.792969
   11.8319	 -0.002500	  0.028500	  1.007000	   -0.410000	   -0.150000	    0.210000	   24.789063
   11.8419	 -0.007000	  0.028000	  1.007000	   -0.460000	   -0.270000	    0.240000	   24.796875
   11.8519	 -0.004500	  0.025500	  1.006500	   -0.460000	   -0.140000	    0.300000	   24.781250
   11.8619	 -0.001500	  0.025000	  1.007000	   -0.450000	   -0.150000	    0.210000	   24.773438
   11.8719	 -0.005000	  0.024500	  1.006500	   -0.380000	   -0.160000	    0.300000	   24.789063
   11.8819	 -0.004000	  0.025500	  1.009000	   -0.440000	   -0.170000	    0.280000	   24.792969
   11.8919	 -0.001500	  0.026500	  1.009500	   -0.240000	   -0.240000	    0.300000	   24.765625
   11.9019	 -0.002000	  0.027500	  1.010000	   -0.430000	   -0.330000	    0.290000	   24.773438
   11.9119	 -0.003500	  0.027000	  1.008500	   -0.350000	   -0.290000	    0.220000	   24.785156
   11.9219	 -0.001500	  0.025500	  1.009500	   -0.410000	   -0.080000	    0.250000	   24.796875
   11.9319	  0.000500	  0.026500	  1.009000	   -0.360000	   -0.180000	    0.300000	   24.777344
   11.9422	 -0.001500	  0.027000	  1.007500	   -0.300000	   -0.100000	    0.190000	   24.785156
   11.9519	 -0.002000	  0.027500	  1.007000	   -0.360000	   -0.190000	    0.240000	   24.792969
   11.9619	 -0.001000	  0.027000	  1.007500	   -0.220000	   -0.080000	    0.260000	   24.812500
   11.9719	 -0.003500	  0.025000	  1.006500	   -0.450000	   -0.270000	    0.300000	   24.820313
   11.9819	 -0.005500	  0.026500	  1.007000	   -0.340000	   -0.120000	    0.260000	   24.789063
   11.9919	 -0.004500	  0.026000	  1.006500	   -0.430000	   -0.340000	    0.340000	   24.792969
   12.0019	 -0.004500	  0.025000	  1.007000	   -0.270000	   -0.130000	    0.280000	   24.789063
   12.0119	 -0.006000	  0.027000	  1.006500	   -0.220000	   -0.140000	    0.250000	   24.777344
   12.0219	 -0.004000	  0.026500	  1.005000	   -0.390000	   -0.120000	    0.270000	   24.804688
   12.0319	 -0.002000	  0.027500	  1.007000	   -0.340000	   -0.190000	    0.300000	   24.796875
   12.0419	 -0.002000	  0.029500	  1.006500	   -0.350000	   -0.090000	    0.250000	   24.777344
   12.0519	 -0.002000	  0.029000	  1.006500	   -0.460000	   -0.080000	    0.310000	   24.769531
   12.0619	  0.001000	  0.029000	  1.005500	   -0.390000	   -0.140000	    0.220000	   24.777344
   12.0719	  0.002500	  0.030500	  1.005000	   -0.330000	   -0.170000	    0.310000	   24.789063
   12.0819	  0.001500	  0.029000	  1.005500	   -0.370000	   -0.140000	    0.250000	   24.781250
   12.0919	  0.001500	  0.030000	  1.006000	   -0.420000	   -0.110000	    0.280000	   24.800781
   12.1019	  0.000500	  0.027500	  1.006500	   -0.390000	   -0.190000	    0.220000	   24.816406
   12.1119	 -0.000500	  0.027500	  1.006500	   -0.430000	   -0.150000	    0.250000	   24.812500
   12.1219	 -0.001000	  0.027000	  1.008000	   -0.300000	   -0.170000	    0.280000	   24.800781
   12.1319	 -0.002500	  0.026500	  1.007500	   -0.340000	   -0.280000	    0.300000	   24.796875
   12.1419	 -0.004500	  0.026000	  1.007000	   -0.360000	   -0.220000	    0.260000	   24.789063
   12.1519	 -0.004000	  0.027000	  1.009000	   -0.320000	   -0.080000	    0.080000	   24.785156
   12.1619	 -0.003500	  0.024500	  1.008500	   -0.400000	   -0.110000	    0.240000	   24.777344
   12.1719	 -0.004500	  0.025000	  1.007500	   -0.360000	   -0.250000	    0.160000	   24.789063
   12.1819	 -0.005000	  0.024500	  1.009000	   -0.280000	   -0.150000	    0.230000	   24.773438
   12.1919	 -0.003500	  0.025500	  1.008000	   -0.340000	   -0.050000	    0.210000	   24.773438
   12.2019	 -0.004000	  0.025500	  1.007000	   -0.540000	   -0.230000	    0.180000	   24.792969
   12.2119	 -0.003000	  0.025000	  1.008500	   -0.290000	    0.010000	    0.270000	   24.808594
   12.2219	 -0.001000	  0.026500	  1.006500	   -0.270000	   -0.160000	    0.300000	   24.804688
   12.2319	 -0.001500	  0.027500	  1.009000	   -0.330000	   -0.160000	    0.320000	   24.804688
   12.2419	  0.000000	  0.029000	  1.006500	   -0.370000	    0.010000	    0.200000	   24.796875
   12.2519	 -0.000500	  0.028000	  1.007000	   -0.200000	   -0.100000	    0.130000	   24.816406
   12.2619	  0.000000	  0.029000	  1.006000	   -0.310000	   -0.210000	    0.300000	   24.812500
   12.2719	 -0.001500	  0.029000	  1.006500	   -0.380000	   -0.020000	    0.220000	   24.812500
   12.2819	 -0.001000	  0.029000	  1.005000	   -0.390000	   -0.120000	    0.160000	   24.785156
   12.2919	 -0.002500	  0.028500	  1.006500	   -0.360000	   -0.250000	    0.300000	   24.789063
   12.3019	 -0.003000	  0.027500	  1.005500	   -0.390000	   -0.180000	    0.210000	   24.781250
   12.3119	 -0.003500	  0.029000	  1.007500	   -0.380000	   -0.070000	    0.290000	   24.785156
   12.3219	 -0.004000	  0.028500	  1.008500	   -0.420000	   -0.100000	    0.230000	   24.789063
   12.3319	 -0.004000	  0.027000	  1.005000	   -0.370000	   -0.040000	    0.180000	   24.804688
   12.3419	 -0.004000	  0.026500	  1.008500	   -0.380000	   -0.110000	    0.230000	   24.785156
   12.3519	 -0.003500	  0.028000	  1.005500	   -0.420000	   -0.180000	    0.230000	   24.792969
   12.3619	 -0.003500	  0.027500	  1.005000	   -0.420000	   -0.040000	    0.200000	   24.777344
   12.3719	 -0.003500	  0.025500	  1.006500	   -0.290000	   -0.010000	    0.200000	   24.796875
   12.3819	 -0.002500	  0.027000	  1.006500	   -0.330000	   -0.180000	    0.200000	   24.800781
   12.3919	 -0.002000	  0.027500	  1.006000	   -0.230000	   -0.140000	    0.240000	   24.789063
   12.4019	 -0.002500	  0.027000	  1.007000	   -0.460000	   -0.130000	    0.250000	   24.769531
   12.4119	 -0.001500	  0.027500	  1.007000	   -0.400000	   -0.090000	    0.160000	   24.792969
   12.4219	 -0.001500	  0.027500	  1.007000	   -0.400000	   -0.140000	    0.160000	   24.800781
   12.4319	 -0.003000	  0.028000	  1.007000	   -0.350000	   -0.300000	    0.270000	   24.792969
   12.4419	 -0.002000	  0.027500	  1.007500	   -0.270000	   -0.170000	    0.220000	   24.769531
   12.4519	 -0.002500	  0.027000	  1.006500	   -0.230000	   -0.190000	    0.290000	   24.773438
   12.4619	 -0.001500	  0.026000	  1.006000	   -0.320000	   -0.140000	    0.230000	   24.792969
   12.4719	 -0.002500	  0.026500	  1.006500	   -0.310000	   -0.210000	    0.200000	   24.804688
   12.4819	 -0.002000	  0.025500	  1.007000	   -0.310000	   -0.200000	    0.250000	   24.804688
   12.4919	 -0.001500	  0.025500	  1.006000	   -0.330000	   -0.180000	    0.270000	   24.796875
   12.5019	 -0.001000	  0.026500	  1.007000	   -0.480000	   -0.180000	    0.390000	   24.785156
   12.5119	 -0.002500	  0.027500	  1.007000	   -0.460000	   -0.040000	    0.310000	   24.792969
