ï»¿Time_s    	AccX_g    	AccY_g    	AccZ_g    	GyroX_degs  	GyroY_degs  	GyroZ_degs  	IMU_Temperature
    0.0676	  0.005500	  0.024500	  1.007500	   -0.280000	   -0.170000	    0.310000	   24.753906
    0.0700	  0.004500	  0.025000	  1.006500	   -0.370000	   -0.130000	    0.320000	   24.777344
    0.0725	  0.005500	  0.024500	  1.007500	   -0.420000	   -0.240000	    0.270000	   24.773438
    0.0750	  0.006000	  0.025000	  1.007000	   -0.400000	   -0.180000	    0.230000	   24.785156
    0.0774	  0.004000	  0.027000	  1.007000	   -0.400000	   -0.190000	    0.290000	   24.792969
    0.0824	  0.004500	  0.026000	  1.008500	   -0.330000	   -0.110000	    0.140000	   24.781250
    0.0924	  0.006000	  0.026000	  1.005500	   -0.420000	   -0.090000	    0.350000	   24.761719
    0.1024	  0.004500	  0.026500	  1.007500	   -0.290000	   -0.190000	    0.220000	   24.781250
    0.1124	  0.004000	  0.025500	  1.007500	   -0.350000	   -0.080000	    0.350000	   24.804688
    0.1224	  0.004500	  0.026500	  1.005500	   -0.350000	   -0.210000	    0.300000	   24.781250
    0.1326	  0.005500	  0.025500	  1.006500	   -0.370000	   -0.100000	    0.350000	   24.765625
    0.1424	  0.004500	  0.025500	  1.006500	   -0.180000	   -0.130000	    0.190000	   24.800781
    0.1524	  0.004500	  0.025000	  1.007000	   -0.420000	   -0.230000	    0.240000	   24.781250
    0.1624	  0.005000	  0.024500	  1.006000	   -0.390000	   -0.200000	    0.250000	   24.738281
    0.1724	  0.006500	  0.024500	  1.007500	   -0.320000	   -0.070000	    0.190000	   24.761719
    0.1824	  0.005000	  0.025500	  1.008000	   -0.260000	   -0.140000	    0.200000	   24.753906
    0.1924	  0.004500	  0.025500	  1.009000	   -0.390000	   -0.160000	    0.280000	   24.738281
    0.2024	  0.008000	  0.025000	  1.009000	   -0.480000	   -0.170000	    0.230000	   24.750000
    0.2127	  0.006500	  0.026000	  1.006500	   -0.370000	   -0.100000	    0.210000	   24.792969
    0.2224	  0.005000	  0.026000	  1.008000	   -0.340000	   -0.200000	    0.190000	   24.789063
    0.2324	  0.007500	  0.023500	  1.008000	   -0.340000	   -0.240000	    0.240000	   24.785156
    0.2424	  0.005500	  0.024500	  1.005500	   -0.380000	   -0.160000	    0.230000	   24.781250
    0.2524	  0.005500	  0.024500	  1.009000	   -0.420000	   -0.150000	    0.240000	   24.765625
    0.2624	  0.006500	  0.024500	  1.006500	   -0.310000	   -0.140000	    0.200000	   24.742188
    0.2724	  0.003500	  0.023000	  1.007000	   -0.300000	   -0.260000	    0.160000	   24.742188
    0.2824	  0.003500	  0.024000	  1.007000	   -0.400000	   -0.170000	    0.160000	   24.753906
    0.2926	  0.003500	  0.022500	  1.007000	   -0.430000	   -0.110000	    0.310000	   24.765625
    0.3024	  0.002000	  0.023500	  1.007500	   -0.230000	    0.080000	    0.190000	   24.750000
    0.3124	  0.004500	  0.024500	  1.008000	   -0.320000	   -0.050000	    0.360000	   24.781250
    0.3224	  0.006000	  0.026000	  1.004500	   -0.290000	   -0.210000	    0.340000	   24.781250
    0.3324	  0.005000	  0.026000	  1.006500	   -0.310000	   -0.180000	    0.330000	   24.781250
    0.3424	  0.006000	  0.025500	  1.007000	   -0.390000	   -0.070000	    0.210000	   24.792969
    0.3524	  0.008000	  0.026000	  1.005000	   -0.420000	   -0.160000	    0.380000	   24.781250
    0.3624	  0.005500	  0.025500	  1.005500	   -0.320000	   -0.150000	    0.240000	   24.769531
    0.3730	  0.008500	  0.025500	  1.007500	   -0.480000	   -0.190000	    0.260000	   24.777344
    0.3824	  0.006500	  0.025500	  1.005500	   -0.350000	   -0.120000	    0.210000	   24.781250
    0.3924	  0.004000	  0.025500	  1.007500	   -0.280000	   -0.040000	    0.160000	   24.781250
    0.4024	  0.005500	  0.024500	  1.008000	   -0.300000	   -0.160000	    0.130000	   24.781250
    0.4125	  0.004500	  0.024500	  1.007500	   -0.350000	   -0.140000	    0.190000	   24.761719
    0.4224	  0.003000	  0.025000	  1.009000	   -0.400000	   -0.110000	    0.190000	   24.750000
    0.4324	  0.005000	  0.024000	  1.010000	   -0.450000	   -0.050000	    0.240000	   24.761719
    0.4424	  0.005000	  0.024500	  1.006000	   -0.420000	   -0.220000	    0.360000	   24.757813
    0.4526	  0.003500	  0.025500	  1.008500	   -0.350000	   -0.190000	    0.210000	   24.777344
    0.4624	  0.005000	  0.024500	  1.009000	   -0.450000	   -0.120000	    0.170000	   24.769531
    0.4724	  0.005500	  0.024000	  1.006500	   -0.350000	   -0.220000	    0.380000	   24.781250
    0.4824	  0.004500	  0.025500	  1.009000	   -0.350000	   -0.020000	    0.330000	   24.781250
    0.4924	  0.007000	  0.024500	  1.008000	   -0.350000	   -0.170000	    0.280000	   24.781250
    0.5024	  0.007000	  0.025500	  1.007000	   -0.400000	   -0.010000	    0.180000	   24.773438
    0.5125	  0.006000	  0.024500	  1.008000	   -0.330000	   -0.170000	    0.270000	   24.800781
    0.5224	  0.007500	  0.025000	  1.006500	   -0.340000	   -0.060000	    0.190000	   24.804688
    0.5326	  0.004500	  0.025500	  1.006500	   -0.350000	   -0.220000	    0.200000	   24.789063
    0.5424	  0.006000	  0.025500	  1.008500	   -0.420000	   -0.100000	    0.210000	   24.816406
    0.5524	  0.005500	  0.024500	  1.007500	   -0.430000	   -0.150000	    0.330000	   24.808594
    0.5624	  0.003500	  0.025000	  1.007000	   -0.300000	   -0.140000	    0.240000	   24.769531
    0.5724	  0.007000	  0.025500	  1.008000	   -0.290000	   -0.160000	    0.310000	   24.777344
    0.5824	  0.005500	  0.024500	  1.006500	   -0.350000	   -0.060000	    0.240000	   24.746094
    0.5924	  0.004500	  0.025500	  1.007500	   -0.430000	    0.010000	    0.240000	   24.750000
    0.6025	  0.005000	  0.025000	  1.007500	   -0.340000	   -0.050000	    0.240000	   24.773438
    0.6127	  0.004500	  0.025000	  1.007500	   -0.280000	   -0.150000	    0.080000	   24.781250
    0.6224	  0.004500	  0.024500	  1.008000	   -0.310000	   -0.130000	    0.080000	   24.781250
    0.6324	  0.006000	  0.026500	  1.007000	   -0.330000	   -0.100000	    0.210000	   24.769531
    0.6424	  0.004500	  0.025500	  1.005500	   -0.370000	   -0.010000	    0.250000	   24.781250
    0.6524	  0.004000	  0.024000	  1.007000	   -0.400000	   -0.050000	    0.280000	   24.777344
    0.6624	  0.003500	  0.025000	  1.007000	   -0.310000	   -0.060000	    0.360000	   24.773438
    0.6724	  0.004500	  0.025500	  1.005500	   -0.370000	   -0.110000	    0.240000	   24.765625
    0.6824	  0.004500	  0.026000	  1.008000	   -0.430000	   -0.260000	    0.380000	   24.761719
    0.6927	  0.004500	  0.026500	  1.007000	   -0.350000	   -0.150000	    0.230000	   24.750000
    0.7024	  0.004000	  0.025500	  1.007000	   -0.300000	   -0.110000	    0.140000	   24.757813
    0.7125	  0.005500	  0.025500	  1.006000	   -0.280000	   -0.220000	    0.300000	   24.785156
    0.7224	  0.003500	  0.025500	  1.008000	   -0.360000	   -0.240000	    0.210000	   24.792969
    0.7324	  0.004500	  0.025500	  1.007000	   -0.350000	   -0.310000	    0.250000	   24.781250
    0.7424	  0.005000	  0.025000	  1.008000	   -0.500000	   -0.120000	    0.280000	   24.765625
    0.7524	  0.005000	  0.025500	  1.005500	   -0.360000	   -0.110000	    0.230000	   24.781250
    0.7624	  0.004500	  0.024000	  1.005500	   -0.390000	   -0.320000	    0.460000	   24.781250
    0.7726	  0.005500	  0.025000	  1.008500	   -0.330000	   -0.060000	    0.230000	   24.761719
    0.7824	  0.005000	  0.025500	  1.007000	   -0.380000	   -0.160000	    0.120000	   24.781250
    0.7924	  0.003500	  0.025500	  1.006500	   -0.490000	   -0.140000	    0.190000	   24.800781
    0.8024	  0.003500	  0.024500	  1.009500	   -0.360000	   -0.040000	    0.230000	   24.792969
    0.8125	  0.004000	  0.025500	  1.008500	   -0.380000	   -0.170000	    0.240000	   24.761719
    0.8225	  0.000500	  0.025500	  1.006500	   -0.370000	   -0.150000	    0.300000	   24.777344
    0.8324	  0.004000	  0.026000	  1.007000	   -0.200000	   -0.120000	    0.200000	   24.773438
    0.8424	  0.008000	  0.025000	  1.005500	   -0.510000	   -0.280000	    0.260000	   24.785156
    0.8527	  0.002000	  0.025000	  1.009500	   -0.420000	   -0.270000	    0.320000	   24.765625
    0.8624	  0.003500	  0.026000	  1.005000	   -0.330000	   -0.070000	    0.210000	   24.765625
    0.8725	  0.008500	  0.024500	  1.007500	   -0.310000	   -0.170000	    0.210000	   24.785156
    0.8824	  0.004000	  0.024500	  1.007000	   -0.230000	   -0.100000	    0.320000	   24.800781
    0.8924	  0.002500	  0.025500	  1.005000	   -0.340000	   -0.200000	    0.220000	   24.796875
    0.9024	  0.006000	  0.025500	  1.006500	   -0.360000	   -0.120000	    0.160000	   24.800781
    0.9125	  0.005500	  0.025500	  1.009500	   -0.310000	   -0.040000	    0.290000	   24.785156
    0.9224	  0.003000	  0.026000	  1.005500	   -0.340000	   -0.010000	    0.160000	   24.773438
    0.9327	  0.005000	  0.026000	  1.006500	   -0.390000	   -0.270000	    0.330000	   24.750000
    0.9424	  0.008000	  0.026500	  1.007000	   -0.280000	   -0.200000	    0.200000	   24.753906
    0.9525	  0.005500	  0.026500	  1.008000	   -0.280000	   -0.200000	    0.300000	   24.781250
    0.9624	  0.004500	  0.026500	  1.006000	   -0.360000	   -0.200000	    0.260000	   24.769531
    0.9725	  0.007500	  0.027000	  1.008000	   -0.350000	   -0.020000	    0.240000	   24.769531
    0.9824	  0.005500	  0.026000	  1.005500	   -0.390000	   -0.120000	    0.230000	   24.769531
    0.9925	  0.005000	  0.025500	  1.007500	   -0.390000	   -0.070000	    0.200000	   24.777344
    1.0024	  0.005000	  0.026500	  1.007000	   -0.400000	   -0.190000	    0.310000	   24.750000
    1.0127	  0.006500	  0.025000	  1.008500	   -0.440000	   -0.170000	    0.360000	   24.765625
    1.0224	  0.004500	  0.026500	  1.007500	   -0.400000	   -0.220000	    0.160000	   24.781250
    1.0325	  0.004000	  0.025500	  1.008500	   -0.340000	   -0.160000	    0.240000	   24.757813
    1.0425	  0.006500	  0.024500	  1.007000	   -0.390000	   -0.010000	    0.170000	   24.773438
    1.0525	  0.006000	  0.025000	  1.007500	   -0.330000	   -0.150000	    0.240000	   24.789063
    1.0624	  0.004500	  0.025000	  1.008000	   -0.470000	   -0.160000	    0.310000	   24.785156
    1.0725	  0.007500	  0.026000	  1.008000	   -0.470000	   -0.080000	    0.240000	   24.789063
    1.0825	  0.006000	  0.024500	  1.007500	   -0.410000	   -0.080000	    0.300000	   24.781250
    1.0927	  0.005500	  0.024000	  1.007500	   -0.300000	   -0.020000	    0.240000	   24.781250
    1.1025	  0.006000	  0.024500	  1.007000	   -0.470000	    0.000000	    0.260000	   24.785156
    1.1125	  0.006000	  0.024500	  1.007000	   -0.380000	   -0.130000	    0.370000	   24.769531
    1.1225	  0.005500	  0.026500	  1.008000	   -0.410000	   -0.080000	    0.290000	   24.765625
    1.1325	  0.005500	  0.025500	  1.008500	   -0.360000	   -0.120000	    0.250000	   24.757813
    1.1425	  0.005000	  0.026000	  1.006000	   -0.330000	   -0.050000	    0.220000	   24.785156
    1.1525	  0.005500	  0.025000	  1.007500	   -0.490000	   -0.120000	    0.270000	   24.785156
    1.1625	  0.005000	  0.026000	  1.007500	   -0.420000	   -0.220000	    0.330000	   24.757813
    1.1727	  0.005500	  0.023500	  1.006000	   -0.410000	   -0.270000	    0.270000	   24.757813
    1.1825	  0.005500	  0.024000	  1.008500	   -0.360000	   -0.010000	    0.220000	   24.777344
    1.1925	  0.004500	  0.024500	  1.006000	   -0.410000	   -0.190000	    0.240000	   24.789063
    1.2025	  0.004000	  0.025000	  1.007000	   -0.340000	   -0.200000	    0.190000	   24.773438
    1.2125	  0.004500	  0.024000	  1.007500	   -0.450000	   -0.210000	    0.320000	   24.777344
    1.2225	  0.003500	  0.026000	  1.006000	   -0.370000	   -0.130000	    0.250000	   24.777344
    1.2325	  0.005000	  0.026000	  1.005500	   -0.290000	   -0.220000	    0.210000	   24.792969
    1.2425	  0.004000	  0.025000	  1.007500	   -0.420000	   -0.080000	    0.210000	   24.777344
    1.2527	  0.004500	  0.024500	  1.005000	   -0.570000	   -0.110000	    0.270000	   24.789063
    1.2625	  0.005000	  0.026500	  1.006000	   -0.460000	   -0.190000	    0.340000	   24.800781
    1.2725	  0.005500	  0.025000	  1.006500	   -0.380000	   -0.080000	    0.200000	   24.777344
    1.2825	  0.005500	  0.026000	  1.008000	   -0.450000	   -0.060000	    0.230000	   24.757813
    1.2925	  0.006500	  0.026000	  1.006000	   -0.410000	   -0.050000	    0.180000	   24.761719
    1.3025	  0.006000	  0.025500	  1.010000	   -0.390000	   -0.230000	    0.300000	   24.750000
    1.3125	  0.005500	  0.027000	  1.006500	   -0.370000	   -0.040000	    0.230000	   24.750000
    1.3225	  0.006000	  0.026000	  1.007000	   -0.360000	   -0.170000	    0.160000	   24.765625
    1.3327	  0.006500	  0.025000	  1.008500	   -0.410000	   -0.270000	    0.240000	   24.738281
    1.3425	  0.004500	  0.025000	  1.007500	   -0.350000	   -0.200000	    0.300000	   24.761719
    1.3525	  0.004500	  0.024000	  1.006500	   -0.310000	   -0.170000	    0.250000	   24.765625
    1.3625	  0.005500	  0.025000	  1.010000	   -0.270000	   -0.090000	    0.200000	   24.750000
    1.3729	  0.005000	  0.025500	  1.008000	   -0.420000	   -0.040000	    0.160000	   24.765625
    1.3825	  0.004000	  0.026000	  1.007000	   -0.380000	   -0.090000	    0.210000	   24.769531
    1.3925	  0.005000	  0.024500	  1.007500	   -0.440000	   -0.080000	    0.210000	   24.785156
    1.4025	  0.005500	  0.025000	  1.008000	   -0.340000	   -0.180000	    0.100000	   24.789063
    1.4127	  0.003000	  0.025500	  1.007500	   -0.370000	   -0.160000	    0.220000	   24.777344
    1.4225	  0.005500	  0.026000	  1.007500	   -0.330000	   -0.250000	    0.300000	   24.781250
    1.4325	  0.004000	  0.024000	  1.006500	   -0.260000	   -0.090000	    0.110000	   24.773438
    1.4425	  0.004000	  0.025000	  1.007000	   -0.440000	   -0.120000	    0.260000	   24.750000
    1.4525	  0.004500	  0.025000	  1.005500	   -0.270000	   -0.050000	    0.170000	   24.761719
    1.4625	  0.005500	  0.025000	  1.007000	   -0.350000	   -0.120000	    0.280000	   24.765625
    1.4725	  0.004500	  0.025500	  1.006000	   -0.510000	   -0.130000	    0.150000	   24.781250
    1.4825	  0.002500	  0.026000	  1.007500	   -0.380000	   -0.250000	    0.270000	   24.781250
    1.4927	  0.004000	  0.025500	  1.007500	   -0.410000	   -0.140000	    0.260000	   24.773438
    1.5025	  0.006000	  0.026000	  1.006000	   -0.350000	   -0.060000	    0.270000	   24.769531
    1.5125	  0.004000	  0.025000	  1.008000	   -0.500000	   -0.170000	    0.190000	   24.761719
    1.5225	  0.005500	  0.024500	  1.007500	   -0.520000	   -0.040000	    0.240000	   24.765625
    1.5325	  0.006500	  0.024500	  1.006500	   -0.340000	   -0.250000	    0.290000	   24.777344
    1.5425	  0.006000	  0.026000	  1.008500	   -0.340000	   -0.120000	    0.200000	   24.792969
    1.5525	  0.005000	  0.024000	  1.007000	   -0.330000	   -0.140000	    0.300000	   24.792969
    1.5625	  0.006500	  0.024500	  1.007500	   -0.320000	   -0.130000	    0.150000	   24.785156
    1.5727	  0.007500	  0.026000	  1.008000	   -0.410000	   -0.190000	    0.300000	   24.792969
    1.5825	  0.003500	  0.024500	  1.007500	   -0.250000	   -0.140000	    0.330000	   24.792969
    1.5925	  0.006000	  0.026500	  1.008000	   -0.310000	   -0.200000	    0.230000	   24.777344
    1.6025	  0.006500	  0.024500	  1.007000	   -0.240000	   -0.150000	    0.200000	   24.753906
    1.6125	  0.004500	  0.025000	  1.009000	   -0.390000	   -0.190000	    0.290000	   24.753906
    1.6225	  0.006000	  0.025000	  1.006500	   -0.460000	   -0.140000	    0.270000	   24.769531
    1.6325	  0.007500	  0.023000	  1.007000	   -0.520000	   -0.090000	    0.160000	   24.761719
    1.6425	  0.005000	  0.024500	  1.008000	   -0.330000	   -0.110000	    0.280000	   24.781250
    1.6527	  0.005000	  0.024000	  1.007000	   -0.410000	   -0.100000	    0.210000	   24.781250
    1.6625	  0.005000	  0.025500	  1.005500	   -0.330000	   -0.320000	    0.310000	   24.781250
    1.6726	  0.005000	  0.025500	  1.007500	   -0.370000	   -0.170000	    0.240000	   24.785156
    1.6825	  0.003500	  0.024500	  1.006000	   -0.350000	   -0.190000	    0.320000	   24.800781
    1.6925	  0.003500	  0.024000	  1.006500	   -0.340000	   -0.240000	    0.300000	   24.800781
    1.7025	  0.005000	  0.025000	  1.006500	   -0.330000	   -0.140000	    0.260000	   24.785156
    1.7125	  0.004500	  0.024500	  1.006500	   -0.400000	   -0.160000	    0.250000	   24.765625
    1.7225	  0.005500	  0.026000	  1.007500	   -0.410000	   -0.200000	    0.300000	   24.757813
    1.7327	  0.006000	  0.025000	  1.007500	   -0.410000	   -0.120000	    0.280000	   24.777344
    1.7425	  0.006500	  0.025500	  1.007500	   -0.340000	   -0.200000	    0.140000	   24.781250
    1.7525	  0.005500	  0.026000	  1.008500	   -0.410000	   -0.090000	    0.250000	   24.777344
    1.7625	  0.006500	  0.025500	  1.008000	   -0.420000	   -0.170000	    0.330000	   24.792969
    1.7725	  0.006000	  0.025500	  1.006000	   -0.450000	   -0.160000	    0.250000	   24.773438
    1.7825	  0.004500	  0.025000	  1.007000	   -0.380000	   -0.250000	    0.180000	   24.765625
    1.7925	  0.005000	  0.024500	  1.007000	   -0.320000	   -0.080000	    0.200000	   24.777344
    1.8025	  0.004500	  0.025500	  1.006500	   -0.340000	   -0.080000	    0.210000	   24.769531
    1.8128	  0.004000	  0.026000	  1.007500	   -0.280000	   -0.220000	    0.260000	   24.765625
    1.8225	  0.005500	  0.025500	  1.009000	   -0.340000	   -0.220000	    0.300000	   24.781250
    1.8325	  0.005500	  0.025500	  1.006500	   -0.350000	   -0.210000	    0.250000	   24.785156
    1.8425	  0.004000	  0.025500	  1.009000	   -0.410000	   -0.110000	    0.180000	   24.761719
    1.8525	  0.005500	  0.025000	  1.006500	   -0.250000	   -0.040000	    0.200000	   24.769531
    1.8625	  0.006500	  0.026000	  1.008000	   -0.350000	   -0.160000	    0.240000	   24.789063
    1.8725	  0.004000	  0.026000	  1.007500	   -0.230000	   -0.080000	    0.250000	   24.789063
    1.8825	  0.006500	  0.025500	  1.007000	   -0.310000	   -0.100000	    0.210000	   24.738281
    1.8927	  0.005500	  0.025000	  1.007500	   -0.370000	   -0.340000	    0.260000	   24.765625
    1.9025	  0.005500	  0.026000	  1.008000	   -0.470000	   -0.180000	    0.250000	   24.804688
    1.9125	  0.005000	  0.024500	  1.007500	   -0.410000	   -0.170000	    0.170000	   24.792969
    1.9225	  0.004000	  0.025000	  1.007000	   -0.330000	   -0.130000	    0.260000	   24.738281
    1.9325	  0.006000	  0.024500	  1.007000	   -0.330000	   -0.250000	    0.170000	   24.753906
    1.9425	  0.004500	  0.024000	  1.006500	   -0.360000	   -0.150000	    0.180000	   24.773438
    1.9525	  0.003000	  0.025000	  1.005500	   -0.310000	   -0.220000	    0.260000	   24.777344
    1.9625	  0.004000	  0.023500	  1.008000	   -0.280000	   -0.110000	    0.320000	   24.781250
    1.9727	  0.004500	  0.024000	  1.006000	   -0.220000	   -0.130000	    0.260000	   24.750000
    1.9825	  0.003000	  0.024500	  1.005500	   -0.360000	   -0.130000	    0.220000	   24.750000
    1.9925	  0.005500	  0.025000	  1.009000	   -0.360000	   -0.230000	    0.230000	   24.753906
    2.0025	  0.005500	  0.025000	  1.006000	   -0.390000	   -0.090000	    0.140000	   24.742188
    2.0125	  0.005000	  0.025000	  1.006500	   -0.460000	   -0.130000	    0.200000	   24.761719
    2.0225	  0.007000	  0.025000	  1.006500	   -0.360000	   -0.170000	    0.300000	   24.789063
    2.0325	  0.006000	  0.025500	  1.006500	   -0.340000	   -0.150000	    0.280000	   24.808594
    2.0425	  0.005500	  0.025000	  1.005500	   -0.440000	   -0.010000	    0.380000	   24.796875
    2.0527	  0.005000	  0.026000	  1.006000	   -0.370000	   -0.240000	    0.240000	   24.781250
    2.0625	  0.004500	  0.025500	  1.005500	   -0.440000	   -0.170000	    0.270000	   24.765625
    2.0725	  0.003500	  0.025000	  1.006500	   -0.480000	   -0.140000	    0.250000	   24.792969
    2.0825	  0.004000	  0.026000	  1.007500	   -0.480000	   -0.180000	    0.230000	   24.781250
    2.0925	  0.004500	  0.025000	  1.007000	   -0.450000	   -0.270000	    0.260000	   24.769531
    2.1025	  0.004000	  0.024500	  1.006500	   -0.490000	   -0.320000	    0.230000	   24.757813
    2.1126	  0.005000	  0.025500	  1.007500	   -0.320000	   -0.110000	    0.250000	   24.773438
    2.1225	  0.005000	  0.024500	  1.008000	   -0.300000	   -0.100000	    0.280000	   24.773438
    2.1327	  0.005000	  0.024500	  1.007500	   -0.340000	   -0.190000	    0.250000	   24.785156
    2.1425	  0.007000	  0.025500	  1.008000	   -0.380000	   -0.280000	    0.150000	   24.796875
    2.1525	  0.007000	  0.025500	  1.007500	   -0.380000	   -0.180000	    0.270000	   24.781250
    2.1625	  0.007500	  0.026000	  1.008000	   -0.280000	   -0.210000	    0.240000	   24.796875
    2.1725	  0.007000	  0.026000	  1.007000	   -0.370000	   -0.040000	    0.260000	   24.796875
    2.1825	  0.006000	  0.025500	  1.006000	   -0.330000	   -0.140000	    0.180000	   24.765625
    2.1925	  0.005500	  0.025000	  1.008000	   -0.420000	   -0.190000	    0.230000	   24.781250
    2.2025	  0.005500	  0.025500	  1.007000	   -0.250000	   -0.230000	    0.310000	   24.765625
    2.2128	  0.003000	  0.026000	  1.008000	   -0.360000	   -0.210000	    0.260000	   24.769531
    2.2225	  0.003500	  0.024500	  1.009000	   -0.440000	   -0.170000	    0.270000	   24.765625
    2.2325	  0.004500	  0.024500	  1.008000	   -0.380000	   -0.140000	    0.240000	   24.773438
    2.2425	  0.002000	  0.026000	  1.007500	   -0.430000	   -0.180000	    0.310000	   24.785156
    2.2525	  0.004500	  0.025500	  1.007500	   -0.420000	   -0.140000	    0.180000	   24.781250
    2.2625	  0.005000	  0.024500	  1.007000	   -0.360000	   -0.190000	    0.250000	   24.789063
    2.2725	  0.004500	  0.025000	  1.007000	   -0.450000	   -0.090000	    0.280000	   24.781250
    2.2825	  0.005500	  0.025500	  1.006500	   -0.450000	   -0.080000	    0.240000	   24.757813
    2.2927	  0.007000	  0.025000	  1.007500	   -0.380000	   -0.180000	    0.220000	   24.769531
    2.3025	  0.006500	  0.026000	  1.006500	   -0.420000	   -0.210000	    0.200000	   24.781250
    2.3125	  0.007500	  0.025000	  1.006500	   -0.260000	   -0.180000	    0.230000	   24.765625
    2.3225	  0.006000	  0.025000	  1.006000	   -0.350000	   -0.150000	    0.230000	   24.765625
    2.3325	  0.006000	  0.026000	  1.006000	   -0.350000	   -0.090000	    0.330000	   24.789063
    2.3425	  0.004500	  0.025500	  1.007000	   -0.320000	   -0.250000	    0.210000	   24.781250
    2.3525	  0.004000	  0.024000	  1.006500	   -0.410000	   -0.140000	    0.220000	   24.792969
    2.3625	  0.003500	  0.023500	  1.008000	   -0.280000	   -0.080000	    0.160000	   24.781250
    2.3731	  0.003000	  0.024500	  1.007000	   -0.360000	   -0.170000	    0.250000	   24.785156
    2.3825	  0.002500	  0.024500	  1.006000	   -0.370000	   -0.230000	    0.320000	   24.789063
    2.3925	  0.003500	  0.025000	  1.007500	   -0.390000	   -0.210000	    0.310000	   24.785156
    2.4025	  0.004500	  0.024500	  1.007500	   -0.240000	   -0.270000	    0.280000	   24.781250
    2.4126	  0.005000	  0.025000	  1.007000	   -0.370000	   -0.130000	    0.340000	   24.777344
    2.4225	  0.005000	  0.025000	  1.007500	   -0.330000	   -0.130000	    0.170000	   24.804688
    2.4325	  0.006500	  0.025500	  1.005500	   -0.370000	   -0.310000	    0.370000	   24.769531
    2.4425	  0.006000	  0.025000	  1.007000	   -0.430000	   -0.220000	    0.240000	   24.773438
    2.4527	  0.006500	  0.025500	  1.007500	   -0.370000	   -0.080000	    0.300000	   24.765625
    2.4625	  0.009000	  0.025500	  1.007000	   -0.260000	   -0.060000	    0.210000	   24.769531
    2.4725	  0.006000	  0.025000	  1.007500	   -0.500000	   -0.040000	    0.140000	   24.808594
    2.4825	  0.005000	  0.026000	  1.008500	   -0.400000	   -0.190000	    0.300000	   24.789063
    2.4925	  0.006500	  0.025000	  1.009500	   -0.400000	   -0.260000	    0.200000	   24.773438
    2.5026	  0.006000	  0.025000	  1.009000	   -0.440000	   -0.150000	    0.380000	   24.773438
    2.5126	  0.004500	  0.023500	  1.009000	   -0.340000	   -0.230000	    0.290000	   24.808594
    2.5226	  0.004500	  0.023000	  1.009500	   -0.310000	   -0.210000	    0.300000	   24.765625
    2.5328	  0.004000	  0.023500	  1.007500	   -0.380000	   -0.220000	    0.190000	   24.773438
    2.5425	  0.005500	  0.023000	  1.007000	   -0.410000	    0.030000	    0.170000	   24.777344
    2.5525	  0.010000	  0.024500	  1.005000	   -0.580000	   -0.090000	    0.300000	   24.781250
    2.5625	  0.004000	  0.024500	  1.010000	   -0.280000	   -0.120000	    0.190000	   24.785156
    2.5726	  0.002000	  0.026000	  1.006500	   -0.290000	    0.100000	    0.160000	   24.796875
    2.5825	  0.009500	  0.025500	  1.000500	   -0.300000	   -0.160000	    0.220000	   24.785156
    2.5925	  0.003500	  0.023500	  1.010500	   -0.280000	   -0.010000	    0.220000	   24.769531
    2.6025	  0.000500	  0.026500	  1.003000	   -0.380000	   -0.060000	    0.390000	   24.765625
    2.6128	  0.003000	  0.025000	  1.004500	   -0.460000	   -0.220000	    0.240000	   24.781250
    2.6225	  0.005000	  0.025500	  1.011500	   -0.440000	   -0.210000	    0.300000	   24.792969
    2.6325	  0.003500	  0.026500	  1.006500	   -0.280000	   -0.170000	    0.200000	   24.765625
    2.6426	  0.000000	  0.024500	  1.006500	   -0.490000	   -0.170000	    0.270000	   24.765625
    2.6525	  0.006000	  0.024500	  1.008500	   -0.510000	   -0.100000	    0.380000	   24.777344
    2.6625	  0.007500	  0.025500	  1.007000	   -0.410000	   -0.120000	    0.230000	   24.769531
    2.6725	  0.001500	  0.025500	  1.006500	   -0.270000	   -0.110000	    0.370000	   24.753906
    2.6826	  0.008000	  0.026500	  1.005000	   -0.430000	   -0.160000	    0.190000	   24.773438
    2.6928	  0.009500	  0.024500	  1.009000	   -0.420000	   -0.100000	    0.190000	   24.777344
    2.7026	  0.006000	  0.026000	  1.008000	   -0.420000	   -0.110000	    0.300000	   24.808594
    2.7126	  0.005500	  0.024500	  1.004000	   -0.370000	   -0.150000	    0.230000	   24.769531
    2.7226	  0.007000	  0.024500	  1.011500	   -0.360000	   -0.120000	    0.230000	   24.757813
    2.7326	  0.004500	  0.026500	  1.009500	   -0.340000	   -0.140000	    0.200000	   24.757813
    2.7426	  0.001500	  0.026000	  1.007500	   -0.330000	   -0.240000	    0.240000	   24.742188
    2.7526	  0.005000	  0.025000	  1.009000	   -0.510000	   -0.190000	    0.250000	   24.777344
    2.7626	  0.004500	  0.024500	  1.007500	   -0.330000	   -0.120000	    0.270000	   24.757813
    2.7728	  0.000500	  0.026500	  1.008000	   -0.440000	   -0.090000	    0.150000	   24.746094
    2.7826	  0.005000	  0.024000	  1.009000	   -0.320000	   -0.140000	    0.190000	   24.765625
    2.7926	  0.007000	  0.024500	  1.007500	   -0.560000	   -0.200000	    0.410000	   24.765625
    2.8026	  0.004000	  0.025500	  1.007500	   -0.340000	   -0.110000	    0.240000	   24.769531
    2.8126	  0.005000	  0.024500	  1.006500	   -0.350000	   -0.090000	    0.280000	   24.761719
    2.8226	  0.009500	  0.024000	  1.006500	   -0.360000	   -0.190000	    0.290000	   24.769531
    2.8326	  0.007500	  0.024500	  1.007500	   -0.480000	   -0.230000	    0.160000	   24.773438
    2.8426	  0.004000	  0.025500	  1.007000	   -0.330000	   -0.210000	    0.220000	   24.769531
    2.8528	  0.006500	  0.024000	  1.006000	   -0.340000	   -0.040000	    0.240000	   24.773438
    2.8626	  0.006500	  0.025000	  1.007000	   -0.380000	   -0.110000	    0.340000	   24.781250
    2.8726	  0.002500	  0.024500	  1.007000	   -0.270000	   -0.100000	    0.180000	   24.765625
    2.8826	  0.003500	  0.024000	  1.006000	   -0.300000	   -0.140000	    0.230000	   24.773438
    2.8926	  0.005500	  0.025000	  1.007500	   -0.320000	   -0.190000	    0.330000	   24.765625
    2.9026	  0.001500	  0.024000	  1.006000	   -0.420000	   -0.280000	    0.210000	   24.781250
    2.9126	  0.000500	  0.024500	  1.005500	   -0.280000	   -0.080000	    0.280000	   24.789063
    2.9226	  0.004000	  0.024000	  1.007000	   -0.360000	   -0.170000	    0.330000	   24.777344
    2.9328	  0.003500	  0.024500	  1.005500	   -0.350000	   -0.230000	    0.210000	   24.769531
    2.9426	  0.002000	  0.024500	  1.007000	   -0.330000	   -0.120000	    0.240000	   24.773438
    2.9526	  0.006500	  0.025000	  1.006500	   -0.400000	   -0.080000	    0.350000	   24.781250
    2.9626	  0.007000	  0.026500	  1.007500	   -0.400000	   -0.230000	    0.150000	   24.792969
    2.9726	  0.005500	  0.026500	  1.007000	   -0.530000	   -0.090000	    0.330000	   24.796875
    2.9826	  0.007500	  0.026500	  1.007500	   -0.430000	   -0.140000	    0.320000	   24.781250
    2.9926	  0.008000	  0.026500	  1.007500	   -0.310000	   -0.140000	    0.210000	   24.800781
    3.0026	  0.006500	  0.026000	  1.009000	   -0.400000	   -0.200000	    0.260000	   24.765625
    3.0128	  0.006500	  0.025500	  1.007500	   -0.350000	   -0.040000	    0.350000	   24.757813
    3.0226	  0.006000	  0.025000	  1.007000	   -0.380000	   -0.250000	    0.200000	   24.761719
    3.0326	  0.004500	  0.025500	  1.008500	   -0.430000	   -0.100000	    0.280000	   24.773438
    3.0426	  0.004000	  0.024500	  1.009000	   -0.250000	   -0.220000	    0.160000	   24.773438
    3.0526	  0.003000	  0.024000	  1.007000	   -0.410000	   -0.260000	    0.330000	   24.765625
    3.0626	  0.004500	  0.024000	  1.010000	   -0.300000	   -0.170000	    0.190000	   24.765625
    3.0726	  0.003500	  0.023000	  1.008500	   -0.340000	   -0.150000	    0.240000	   24.777344
    3.0826	  0.003500	  0.024500	  1.009000	   -0.480000	   -0.260000	    0.210000	   24.753906
    3.0928	  0.005000	  0.023000	  1.008500	   -0.150000	   -0.080000	    0.250000	   24.777344
    3.1026	  0.005500	  0.025000	  1.006000	   -0.350000	   -0.110000	    0.300000	   24.773438
    3.1126	  0.005000	  0.023500	  1.007500	   -0.310000	   -0.200000	    0.230000	   24.769531
    3.1226	  0.007000	  0.025500	  1.007000	   -0.410000	   -0.220000	    0.240000	   24.792969
    3.1326	  0.005500	  0.026000	  1.006000	   -0.330000	   -0.100000	    0.260000	   24.792969
    3.1426	  0.004000	  0.026500	  1.006000	   -0.310000	   -0.120000	    0.220000	   24.792969
    3.1526	  0.004000	  0.025500	  1.007500	   -0.350000	   -0.080000	    0.300000	   24.777344
    3.1626	  0.003000	  0.026500	  1.004500	   -0.340000	   -0.180000	    0.250000	   24.792969
    3.1728	  0.000000	  0.026000	  1.006500	   -0.480000	    0.000000	    0.320000	   24.796875
    3.1826	  0.001500	  0.026500	  1.007000	   -0.490000	   -0.100000	    0.320000	   24.796875
    3.1926	  0.004000	  0.025000	  1.008000	   -0.310000	   -0.150000	    0.340000	   24.789063
    3.2026	  0.002500	  0.026000	  1.008000	   -0.450000	   -0.190000	    0.250000	   24.804688
    3.2126	  0.005000	  0.024000	  1.006500	   -0.370000	   -0.100000	    0.250000	   24.777344
    3.2226	  0.008000	  0.026000	  1.007000	   -0.470000	   -0.090000	    0.360000	   24.761719
    3.2326	  0.007000	  0.025000	  1.006500	   -0.450000	   -0.130000	    0.250000	   24.765625
    3.2426	  0.008500	  0.026500	  1.009000	   -0.310000	   -0.160000	    0.190000	   24.769531
    3.2528	  0.010000	  0.027500	  1.006000	   -0.270000	   -0.190000	    0.270000	   24.773438
    3.2626	  0.008500	  0.025000	  1.008500	   -0.400000	   -0.100000	    0.240000	   24.785156
    3.2726	  0.008000	  0.025000	  1.007500	   -0.480000	   -0.100000	    0.190000	   24.789063
    3.2826	  0.006000	  0.024500	  1.008000	   -0.310000	   -0.220000	    0.210000	   24.765625
    3.2926	  0.006500	  0.024500	  1.009000	   -0.430000	   -0.140000	    0.240000	   24.753906
    3.3026	  0.005000	  0.025000	  1.008500	   -0.380000	   -0.050000	    0.080000	   24.757813
    3.3126	  0.003000	  0.023500	  1.006000	   -0.380000	   -0.220000	    0.270000	   24.769531
    3.3226	  0.003000	  0.023500	  1.009500	   -0.380000	   -0.160000	    0.260000	   24.777344
    3.3328	  0.002500	  0.023000	  1.008500	   -0.410000	   -0.110000	    0.240000	   24.773438
    3.3426	  0.000500	  0.023000	  1.009000	   -0.470000	   -0.090000	    0.270000	   24.765625
    3.3526	  0.002000	  0.024000	  1.007500	   -0.420000	   -0.130000	    0.290000	   24.746094
    3.3626	  0.004000	  0.024500	  1.006000	   -0.420000	   -0.170000	    0.370000	   24.757813
    3.3730	  0.003500	  0.023500	  1.006000	   -0.420000	   -0.130000	    0.330000	   24.792969
    3.3826	  0.005000	  0.025000	  1.007000	   -0.410000	   -0.070000	    0.230000	   24.781250
    3.3926	  0.007500	  0.025500	  1.006500	   -0.420000	   -0.080000	    0.280000	   24.757813
    3.4026	  0.007000	  0.026500	  1.005500	   -0.320000	   -0.120000	    0.270000	   24.773438
    3.4128	  0.006500	  0.027000	  1.006500	   -0.350000	   -0.010000	    0.320000	   24.753906
    3.4226	  0.008000	  0.027000	  1.006500	   -0.430000	   -0.190000	    0.310000	   24.773438
    3.4326	  0.006000	  0.026500	  1.007000	   -0.350000	   -0.090000	    0.280000	   24.781250
    3.4426	  0.004500	  0.025000	  1.006500	   -0.310000	   -0.100000	    0.250000	   24.765625
    3.4526	  0.005000	  0.025500	  1.005500	   -0.340000	   -0.160000	    0.330000	   24.753906
    3.4626	  0.005000	  0.024500	  1.009000	   -0.370000	   -0.200000	    0.200000	   24.757813
    3.4726	  0.003500	  0.025000	  1.007000	   -0.330000	   -0.190000	    0.170000	   24.792969
    3.4826	  0.004000	  0.027500	  1.008000	   -0.340000	   -0.050000	    0.310000	   24.769531
    3.4928	  0.005500	  0.025000	  1.008500	   -0.370000	   -0.180000	    0.210000	   24.781250
    3.5026	  0.006000	  0.026000	  1.006500	   -0.180000	   -0.180000	    0.260000	   24.785156
    3.5126	  0.003500	  0.025500	  1.006000	   -0.380000	   -0.230000	    0.250000	   24.765625
    3.5226	  0.005500	  0.026500	  1.008000	   -0.360000	   -0.140000	    0.300000	   24.792969
    3.5326	  0.006500	  0.027000	  1.007000	   -0.350000	   -0.110000	    0.250000	   24.781250
    3.5426	  0.003500	  0.026000	  1.006500	   -0.410000	   -0.270000	    0.200000	   24.761719
    3.5526	  0.003000	  0.025000	  1.007500	   -0.380000	   -0.090000	    0.300000	   24.777344
    3.5626	  0.004000	  0.024500	  1.008000	   -0.400000	   -0.200000	    0.260000	   24.800781
    3.5728	  0.003500	  0.025500	  1.007500	   -0.430000	   -0.110000	    0.260000	   24.792969
    3.5826	  0.003500	  0.024500	  1.010500	   -0.370000	   -0.190000	    0.290000	   24.796875
    3.5926	  0.006000	  0.024500	  1.007000	   -0.400000	   -0.140000	    0.260000	   24.781250
    3.6026	  0.006000	  0.024000	  1.006500	   -0.270000	   -0.170000	    0.160000	   24.781250
    3.6126	  0.006000	  0.024500	  1.012000	   -0.300000	   -0.100000	    0.300000	   24.753906
    3.6227	  0.009000	  0.025000	  1.007500	   -0.440000	   -0.100000	    0.250000	   24.765625
    3.6326	  0.006500	  0.024000	  1.008000	   -0.400000	   -0.040000	    0.210000	   24.781250
    3.6426	  0.006000	  0.024000	  1.008000	   -0.470000	   -0.030000	    0.270000	   24.781250
    3.6528	  0.007000	  0.024500	  1.004500	   -0.340000	   -0.080000	    0.230000	   24.769531
    3.6626	  0.006500	  0.022500	  1.008500	   -0.340000	   -0.070000	    0.200000	   24.796875
    3.6726	  0.004500	  0.024000	  1.007500	   -0.340000	   -0.200000	    0.280000	   24.800781
    3.6826	  0.003000	  0.024000	  1.008000	   -0.310000	   -0.180000	    0.280000	   24.785156
    3.6926	  0.002000	  0.024000	  1.007000	   -0.320000	   -0.100000	    0.240000	   24.792969
    3.7026	  0.002000	  0.025000	  1.010000	   -0.360000	   -0.140000	    0.290000	   24.777344
    3.7126	  0.002500	  0.024500	  1.004500	   -0.270000	   -0.160000	    0.180000	   24.761719
    3.7226	  0.003000	  0.024500	  1.006500	   -0.470000	   -0.160000	    0.360000	   24.765625
    3.7328	  0.005500	  0.025500	  1.005500	   -0.440000	   -0.130000	    0.250000	   24.773438
    3.7426	  0.005500	  0.026000	  1.005000	   -0.460000	   -0.220000	    0.350000	   24.781250
    3.7526	  0.006000	  0.026000	  1.008000	   -0.450000	   -0.230000	    0.320000	   24.800781
    3.7626	  0.008000	  0.025500	  1.007000	   -0.410000	   -0.120000	    0.230000	   24.785156
    3.7726	  0.007000	  0.026500	  1.005000	   -0.330000	   -0.150000	    0.340000	   24.773438
    3.7826	  0.008000	  0.025500	  1.005500	   -0.410000	   -0.160000	    0.210000	   24.765625
    3.7926	  0.009500	  0.025000	  1.006500	   -0.280000	   -0.180000	    0.360000	   24.765625
    3.8026	  0.006000	  0.023000	  1.005000	   -0.210000	   -0.270000	    0.240000	   24.781250
    3.8129	  0.004500	  0.025500	  1.009000	   -0.410000	   -0.110000	    0.180000	   24.792969
    3.8226	  0.004500	  0.024500	  1.008500	   -0.370000	   -0.150000	    0.140000	   24.789063
    3.8326	  0.001500	  0.023500	  1.008000	   -0.450000	   -0.170000	    0.290000	   24.777344
    3.8426	  0.000500	  0.023500	  1.009000	   -0.380000	   -0.110000	    0.240000	   24.773438
    3.8526	  0.003000	  0.023500	  1.008000	   -0.430000	   -0.020000	    0.310000	   24.765625
    3.8626	  0.001000	  0.024000	  1.007500	   -0.360000	   -0.090000	    0.230000	   24.785156
    3.8726	  0.002500	  0.024500	  1.007500	   -0.300000	   -0.020000	    0.260000	   24.773438
    3.8826	  0.005000	  0.024500	  1.008000	   -0.370000	   -0.110000	    0.210000	   24.750000
    3.8928	  0.005500	  0.024500	  1.008500	   -0.400000	   -0.160000	    0.360000	   24.757813
    3.9026	  0.006500	  0.026000	  1.008000	   -0.350000	   -0.060000	    0.240000	   24.800781
    3.9127	  0.008500	  0.027000	  1.006000	   -0.280000	   -0.090000	    0.290000	   24.792969
    3.9226	  0.008500	  0.027000	  1.007000	   -0.430000	   -0.150000	    0.190000	   24.769531
    3.9326	  0.009500	  0.026500	  1.007000	   -0.270000	   -0.200000	    0.240000	   24.761719
    3.9426	  0.007000	  0.027000	  1.007000	   -0.390000	   -0.080000	    0.230000	   24.785156
    3.9526	  0.005000	  0.026000	  1.007500	   -0.430000	   -0.110000	    0.240000	   24.777344
    3.9626	  0.005000	  0.026000	  1.008000	   -0.330000	   -0.120000	    0.210000	   24.800781
    3.9728	  0.003500	  0.025500	  1.007500	   -0.360000	   -0.050000	    0.320000	   24.796875
    3.9826	  0.001500	  0.025000	  1.007000	   -0.380000	   -0.210000	    0.330000	   24.781250
    3.9926	  0.002000	  0.025000	  1.008000	   -0.380000	   -0.020000	    0.160000	   24.789063
    4.0027	  0.004000	  0.025000	  1.007000	   -0.370000	   -0.230000	    0.130000	   24.800781
    4.0126	  0.002000	  0.024000	  1.007500	   -0.480000	   -0.230000	    0.340000	   24.789063
    4.0226	  0.005000	  0.023000	  1.009000	   -0.260000	   -0.100000	    0.160000	   24.773438
    4.0326	  0.006000	  0.024000	  1.006000	   -0.380000	   -0.110000	    0.260000	   24.761719
    4.0426	  0.004500	  0.024000	  1.007500	   -0.370000	   -0.180000	    0.250000	   24.781250
    4.0528	  0.007500	  0.025000	  1.006500	   -0.370000	   -0.150000	    0.220000	   24.804688
    4.0626	  0.006000	  0.025500	  1.006500	   -0.360000	   -0.140000	    0.310000	   24.816406
    4.0726	  0.005500	  0.025000	  1.007000	   -0.500000	   -0.060000	    0.190000	   24.773438
    4.0826	  0.006500	  0.024500	  1.006000	   -0.340000	   -0.170000	    0.180000	   24.753906
    4.0926	  0.006000	  0.026500	  1.006500	   -0.370000	   -0.160000	    0.220000	   24.773438
    4.1027	  0.005000	  0.025000	  1.009000	   -0.260000	   -0.100000	    0.220000	   24.769531
    4.1126	  0.005500	  0.024500	  1.007000	   -0.230000	   -0.150000	    0.160000	   24.765625
    4.1226	  0.004500	  0.024500	  1.006000	   -0.420000	   -0.270000	    0.260000	   24.757813
    4.1328	  0.006500	  0.020500	  1.008000	   -0.430000	   -0.270000	    0.270000	   24.746094
    4.1426	  0.008500	  0.025000	  1.007000	   -0.420000	   -0.100000	    0.130000	   24.773438
    4.1526	  0.007000	  0.023000	  1.005000	   -0.380000	   -0.240000	    0.080000	   24.804688
    4.1626	  0.001000	  0.026000	  1.013000	   -0.250000	    0.000000	    0.290000	   24.765625
    4.1726	  0.005500	  0.022000	  0.999500	   -0.420000	   -0.060000	    0.120000	   24.757813
    4.1826	  0.005000	  0.025000	  1.008000	   -0.480000	   -0.370000	    0.300000	   24.773438
    4.1927	  0.001000	  0.022000	  1.008500	   -0.410000	   -0.100000	    0.230000	   24.761719
    4.2026	  0.002000	  0.026500	  0.999000	   -0.280000	   -0.090000	    0.240000	   24.765625
    4.2129	 -0.000500	  0.024000	  1.010000	   -0.310000	   -0.200000	    0.210000	   24.761719
    4.2226	  0.004000	  0.026500	  1.008000	   -0.310000	   -0.110000	    0.300000	   24.773438
    4.2326	  0.004000	  0.026500	  1.002500	   -0.560000	   -0.200000	    0.320000	   24.804688
    4.2426	  0.000500	  0.026500	  1.012500	   -0.440000	   -0.070000	    0.350000	   24.777344
    4.2526	  0.007500	  0.027500	  1.005000	   -0.390000	   -0.110000	    0.270000	   24.750000
    4.2626	  0.006000	  0.025500	  1.006000	   -0.480000	   -0.230000	    0.290000	   24.789063
    4.2726	  0.003500	  0.027000	  1.009000	   -0.290000	   -0.120000	    0.270000	   24.781250
    4.2826	  0.011000	  0.027000	  1.004000	   -0.360000	   -0.150000	    0.230000	   24.804688
    4.2929	  0.009000	  0.025500	  1.007500	   -0.350000	   -0.330000	    0.280000	   24.824219
    4.3026	  0.007000	  0.027500	  1.007500	   -0.320000	   -0.170000	    0.230000	   24.785156
    4.3126	  0.009000	  0.026500	  1.005500	   -0.330000	   -0.170000	    0.300000	   24.742188
    4.3226	  0.005000	  0.025500	  1.007500	   -0.340000	   -0.200000	    0.130000	   24.769531
    4.3327	  0.003000	  0.024000	  1.007000	   -0.250000	   -0.250000	    0.170000	   24.781250
    4.3426	  0.002000	  0.024500	  1.009000	   -0.300000	   -0.310000	    0.220000	   24.785156
    4.3527	  0.004000	  0.024000	  1.008500	   -0.230000	   -0.120000	    0.250000	   24.781250
    4.3626	  0.002500	  0.024000	  1.007500	   -0.460000	   -0.080000	    0.270000	   24.765625
    4.3732	 -0.000500	  0.023000	  1.008500	   -0.360000	   -0.120000	    0.260000	   24.765625
    4.3826	  0.005000	  0.025500	  1.007000	   -0.330000	   -0.080000	    0.190000	   24.765625
    4.3927	  0.004000	  0.024000	  1.009500	   -0.440000	   -0.210000	    0.250000	   24.769531
    4.4026	  0.002500	  0.026000	  1.007500	   -0.380000	   -0.100000	    0.290000	   24.765625
    4.4127	  0.009000	  0.025000	  1.004500	   -0.410000	   -0.140000	    0.300000	   24.769531
    4.4226	  0.009000	  0.026000	  1.009000	   -0.320000	   -0.190000	    0.280000	   24.773438
    4.4327	  0.007000	  0.027000	  1.006500	   -0.490000	   -0.190000	    0.310000	   24.773438
    4.4427	  0.007500	  0.026500	  1.006000	   -0.300000	   -0.120000	    0.200000	   24.750000
    4.4529	  0.010000	  0.025000	  1.008500	   -0.470000	   -0.060000	    0.160000	   24.730469
    4.4626	  0.007000	  0.025500	  1.005500	   -0.240000	   -0.200000	    0.220000	   24.765625
    4.4727	  0.004500	  0.027000	  1.005000	   -0.310000	   -0.130000	    0.240000	   24.785156
    4.4826	  0.006500	  0.024500	  1.007500	   -0.320000	   -0.170000	    0.230000	   24.765625
    4.4927	  0.003500	  0.023000	  1.005000	   -0.420000	   -0.150000	    0.160000	   24.773438
    4.5027	  0.001000	  0.024500	  1.005500	   -0.310000	   -0.070000	    0.250000	   24.777344
    4.5127	  0.003000	  0.023000	  1.007500	   -0.290000	   -0.020000	    0.170000	   24.773438
    4.5227	  0.002000	  0.024500	  1.006000	   -0.490000	   -0.180000	    0.230000	   24.777344
    4.5330	  0.001500	  0.025000	  1.005500	   -0.290000	   -0.030000	    0.200000	   24.773438
    4.5427	  0.005000	  0.025500	  1.005500	   -0.490000	   -0.240000	    0.320000	   24.789063
    4.5527	  0.005000	  0.025500	  1.006000	   -0.440000	   -0.180000	    0.320000	   24.789063
    4.5627	  0.004000	  0.025000	  1.007000	   -0.350000	   -0.170000	    0.290000	   24.781250
    4.5727	  0.005000	  0.026500	  1.005500	   -0.340000	   -0.110000	    0.280000	   24.789063
    4.5827	  0.007500	  0.026000	  1.006000	   -0.460000	   -0.050000	    0.320000	   24.781250
    4.5927	  0.007000	  0.025500	  1.008000	   -0.400000	   -0.120000	    0.250000	   24.765625
    4.6027	  0.009000	  0.027500	  1.006500	   -0.310000	   -0.050000	    0.250000	   24.765625
    4.6129	  0.008000	  0.025500	  1.008000	   -0.430000	   -0.170000	    0.270000	   24.761719
    4.6227	  0.006000	  0.026000	  1.008500	   -0.380000	   -0.150000	    0.160000	   24.753906
    4.6327	  0.006500	  0.025000	  1.007000	   -0.510000	   -0.180000	    0.250000	   24.773438
    4.6427	  0.005000	  0.024500	  1.008500	   -0.300000	   -0.220000	    0.110000	   24.765625
    4.6527	  0.003000	  0.023500	  1.007500	   -0.390000	   -0.300000	    0.300000	   24.757813
    4.6627	  0.004500	  0.024500	  1.007500	   -0.420000	   -0.130000	    0.140000	   24.785156
    4.6727	  0.003500	  0.024000	  1.009000	   -0.380000	   -0.120000	    0.320000	   24.785156
    4.6827	  0.002500	  0.025000	  1.009000	   -0.350000	   -0.230000	    0.270000	   24.796875
    4.6929	  0.004000	  0.024000	  1.008500	   -0.340000	   -0.150000	    0.280000	   24.789063
    4.7027	  0.002500	  0.026000	  1.006500	   -0.380000	   -0.110000	    0.200000	   24.785156
    4.7127	  0.005500	  0.025000	  1.007500	   -0.470000	   -0.110000	    0.160000	   24.761719
    4.7227	  0.005000	  0.025500	  1.007500	   -0.320000	   -0.210000	    0.250000	   24.796875
    4.7327	  0.004500	  0.027000	  1.007000	   -0.180000	   -0.160000	    0.300000	   24.804688
    4.7427	  0.006000	  0.025500	  1.007000	   -0.390000	   -0.220000	    0.260000	   24.777344
    4.7527	  0.006000	  0.027500	  1.007000	   -0.350000	   -0.040000	    0.210000	   24.750000
    4.7627	  0.006000	  0.027000	  1.007500	   -0.390000	   -0.100000	    0.220000	   24.796875
    4.7729	  0.006000	  0.026500	  1.007000	   -0.400000	   -0.190000	    0.270000	   24.761719
    4.7827	  0.006000	  0.026000	  1.006500	   -0.430000	   -0.130000	    0.310000	   24.750000
    4.7927	  0.005500	  0.025000	  1.005500	   -0.390000	   -0.120000	    0.290000	   24.765625
    4.8027	  0.005500	  0.024500	  1.007000	   -0.350000	   -0.160000	    0.200000	   24.792969
    4.8127	  0.004500	  0.026000	  1.007500	   -0.420000	   -0.190000	    0.180000	   24.804688
    4.8227	  0.003500	  0.024500	  1.006500	   -0.470000	   -0.110000	    0.170000	   24.781250
    4.8327	  0.003000	  0.024000	  1.007500	   -0.350000	   -0.100000	    0.280000	   24.785156
    4.8427	  0.004000	  0.025500	  1.007000	   -0.320000	   -0.130000	    0.180000	   24.785156
    4.8529	  0.002500	  0.025000	  1.006500	   -0.440000	   -0.030000	    0.160000	   24.773438
    4.8627	  0.004500	  0.024000	  1.007500	   -0.360000	   -0.210000	    0.160000	   24.765625
    4.8727	  0.006000	  0.026000	  1.006500	   -0.400000	   -0.330000	    0.240000	   24.777344
    4.8827	  0.005000	  0.024500	  1.007500	   -0.450000	   -0.220000	    0.270000	   24.812500
    4.8927	  0.006000	  0.025000	  1.006500	   -0.460000	   -0.180000	    0.240000	   24.792969
    4.9027	  0.006000	  0.024500	  1.005000	   -0.450000	    0.040000	    0.220000	   24.761719
    4.9127	  0.006000	  0.025500	  1.006500	   -0.340000	   -0.230000	    0.200000	   24.757813
    4.9227	  0.005500	  0.026000	  1.007000	   -0.320000	   -0.270000	    0.220000	   24.773438
    4.9329	  0.006500	  0.024500	  1.007000	   -0.360000	   -0.100000	    0.250000	   24.777344
    4.9427	  0.005500	  0.024000	  1.007000	   -0.420000	   -0.160000	    0.270000	   24.789063
    4.9527	  0.005000	  0.024000	  1.008500	   -0.310000	   -0.100000	    0.300000	   24.792969
    4.9627	  0.003500	  0.023500	  1.008000	   -0.340000	   -0.190000	    0.130000	   24.785156
    4.9727	  0.004000	  0.025000	  1.008500	   -0.310000	   -0.100000	    0.260000	   24.777344
    4.9827	  0.005500	  0.025000	  1.007500	   -0.460000	   -0.200000	    0.180000	   24.777344
    4.9927	  0.004000	  0.024500	  1.007000	   -0.420000	   -0.140000	    0.270000	   24.781250
    5.0027	  0.005000	  0.023500	  1.007000	   -0.280000	   -0.150000	    0.260000	   24.757813
    5.0129	  0.003500	  0.025000	  1.008500	   -0.290000	   -0.140000	    0.210000	   24.757813
    5.0227	  0.005500	  0.025500	  1.007500	   -0.260000	   -0.100000	    0.180000	   24.769531
    5.0327	  0.006500	  0.026500	  1.006500	   -0.380000	   -0.060000	    0.330000	   24.769531
    5.0427	  0.005500	  0.026500	  1.007500	   -0.380000	   -0.070000	    0.220000	   24.777344
    5.0527	  0.005000	  0.026000	  1.005500	   -0.330000	   -0.190000	    0.260000	   24.785156
    5.0627	  0.005000	  0.026500	  1.006500	   -0.350000	   -0.160000	    0.250000	   24.777344
    5.0727	  0.006000	  0.026000	  1.006000	   -0.300000	   -0.210000	    0.240000	   24.769531
    5.0827	  0.004000	  0.027500	  1.007000	   -0.330000	   -0.250000	    0.260000	   24.812500
    5.0929	  0.003000	  0.026000	  1.010000	   -0.440000	   -0.230000	    0.330000	   24.781250
    5.1027	  0.005500	  0.027500	  1.006500	   -0.350000	   -0.100000	    0.200000	   24.781250
    5.1127	  0.004500	  0.024500	  1.006500	   -0.450000	   -0.240000	    0.270000	   24.785156
    5.1227	  0.004000	  0.025500	  1.006500	   -0.530000	   -0.060000	    0.200000	   24.773438
    5.1327	  0.005500	  0.025000	  1.007000	   -0.230000	   -0.120000	    0.200000	   24.777344
    5.1427	  0.005000	  0.024500	  1.009500	   -0.300000	   -0.080000	    0.240000	   24.769531
    5.1527	  0.005500	  0.025500	  1.008000	   -0.280000	   -0.050000	    0.220000	   24.769531
    5.1627	  0.007000	  0.024500	  1.008500	   -0.330000	   -0.120000	    0.220000	   24.765625
    5.1729	  0.007500	  0.026000	  1.006000	   -0.450000	   -0.040000	    0.270000	   24.761719
    5.1827	  0.005000	  0.025500	  1.008500	   -0.260000	   -0.090000	    0.240000	   24.769531
    5.1927	  0.004000	  0.025500	  1.009000	   -0.440000	   -0.070000	    0.250000	   24.777344
    5.2027	  0.007000	  0.025000	  1.005000	   -0.520000	   -0.180000	    0.350000	   24.765625
    5.2127	  0.004000	  0.024500	  1.008500	   -0.370000	   -0.190000	    0.150000	   24.777344
    5.2227	  0.004000	  0.025000	  1.006500	   -0.350000	   -0.150000	    0.280000	   24.781250
    5.2327	  0.005500	  0.024500	  1.007000	   -0.420000	   -0.220000	    0.330000	   24.792969
    5.2427	  0.004000	  0.024500	  1.008000	   -0.430000	   -0.110000	    0.350000	   24.757813
    5.2529	  0.002500	  0.024000	  1.007000	   -0.350000	    0.000000	    0.250000	   24.769531
    5.2627	  0.004000	  0.024000	  1.008000	   -0.330000	   -0.150000	    0.420000	   24.820313
    5.2727	  0.005500	  0.023500	  1.008000	   -0.410000	   -0.180000	    0.340000	   24.800781
    5.2827	  0.004500	  0.026000	  1.007000	   -0.360000	   -0.170000	    0.190000	   24.781250
    5.2927	  0.004500	  0.025500	  1.007000	   -0.480000	   -0.060000	    0.260000	   24.773438
    5.3027	  0.007000	  0.025500	  1.007000	   -0.370000	   -0.200000	    0.260000	   24.761719
    5.3127	  0.005500	  0.025500	  1.005500	   -0.360000	   -0.190000	    0.330000	   24.773438
    5.3227	  0.006000	  0.026500	  1.006500	   -0.410000	   -0.130000	    0.230000	   24.769531
    5.3329	  0.006500	  0.026500	  1.006500	   -0.470000	   -0.110000	    0.310000	   24.777344
    5.3427	  0.005000	  0.025500	  1.007500	   -0.350000	   -0.160000	    0.400000	   24.781250
    5.3527	  0.002500	  0.025500	  1.007500	   -0.300000	   -0.110000	    0.200000	   24.773438
    5.3627	  0.004000	  0.025000	  1.007500	   -0.390000	   -0.240000	    0.170000	   24.789063
    5.3731	  0.004500	  0.025000	  1.007500	   -0.310000	   -0.230000	    0.270000	   24.781250
    5.3827	  0.003000	  0.024500	  1.007000	   -0.310000	   -0.120000	    0.320000	   24.777344
    5.3927	  0.006000	  0.023000	  1.006000	   -0.330000	   -0.170000	    0.230000	   24.757813
    5.4027	  0.005500	  0.024000	  1.008500	   -0.430000	   -0.260000	    0.350000	   24.757813
    5.4130	  0.004500	  0.025500	  1.008000	   -0.300000	   -0.160000	    0.190000	   24.773438
    5.4227	  0.005500	  0.024000	  1.006000	   -0.420000	   -0.230000	    0.230000	   24.789063
    5.4327	  0.006000	  0.025000	  1.006500	   -0.410000	   -0.200000	    0.360000	   24.773438
    5.4427	  0.006500	  0.026000	  1.006000	   -0.290000	   -0.100000	    0.220000	   24.757813
    5.4527	  0.004500	  0.026500	  1.006500	   -0.330000	   -0.210000	    0.260000	   24.761719
    5.4627	  0.006000	  0.025500	  1.008000	   -0.440000	   -0.300000	    0.250000	   24.781250
    5.4727	  0.005500	  0.026500	  1.007500	   -0.350000	   -0.200000	    0.260000	   24.789063
    5.4827	  0.003500	  0.025000	  1.006500	   -0.330000	   -0.130000	    0.200000	   24.792969
    5.4929	  0.003500	  0.025000	  1.007000	   -0.340000	   -0.030000	    0.150000	   24.792969
    5.5027	  0.004000	  0.024000	  1.009000	   -0.400000	   -0.140000	    0.170000	   24.777344
    5.5128	  0.003500	  0.024000	  1.005500	   -0.390000	   -0.150000	    0.280000	   24.792969
    5.5227	  0.003000	  0.025500	  1.008000	   -0.290000	   -0.120000	    0.300000	   24.777344
    5.5327	  0.005000	  0.026000	  1.007000	   -0.330000	   -0.010000	    0.210000	   24.769531
    5.5427	  0.004500	  0.026000	  1.005000	   -0.440000	   -0.140000	    0.210000	   24.773438
    5.5527	  0.004000	  0.026500	  1.007000	   -0.370000	   -0.050000	    0.330000	   24.753906
    5.5627	  0.007000	  0.025500	  1.006500	   -0.350000	   -0.040000	    0.260000	   24.769531
    5.5729	  0.006000	  0.026500	  1.008500	   -0.350000	   -0.120000	    0.260000	   24.781250
    5.5827	  0.006500	  0.026500	  1.006500	   -0.360000	   -0.070000	    0.270000	   24.792969
    5.5927	  0.006000	  0.024000	  1.007500	   -0.380000	   -0.180000	    0.110000	   24.785156
    5.6027	  0.007000	  0.026000	  1.007500	   -0.320000	   -0.140000	    0.280000	   24.769531
    5.6128	  0.006000	  0.025000	  1.008500	   -0.290000	   -0.120000	    0.180000	   24.773438
    5.6227	  0.006000	  0.026000	  1.006500	   -0.400000	   -0.210000	    0.240000	   24.765625
    5.6328	  0.005000	  0.025000	  1.007000	   -0.320000	   -0.180000	    0.240000	   24.765625
    5.6427	  0.004500	  0.024500	  1.007500	   -0.340000	    0.020000	    0.250000	   24.781250
    5.6529	  0.004000	  0.024500	  1.005500	   -0.280000	   -0.120000	    0.190000	   24.773438
    5.6627	  0.004000	  0.024500	  1.009000	   -0.430000	   -0.190000	    0.210000	   24.773438
    5.6727	  0.004500	  0.025000	  1.009000	   -0.420000	   -0.170000	    0.210000	   24.773438
    5.6827	  0.002500	  0.024500	  1.005500	   -0.420000	   -0.160000	    0.330000	   24.804688
    5.6927	  0.003000	  0.023000	  1.008500	   -0.340000	   -0.230000	    0.340000	   24.796875
    5.7027	  0.004500	  0.024500	  1.007000	   -0.370000	   -0.150000	    0.270000	   24.781250
    5.7128	  0.003500	  0.025000	  1.005500	   -0.360000	   -0.070000	    0.280000	   24.781250
    5.7227	  0.004000	  0.024500	  1.006500	   -0.380000	   -0.100000	    0.180000	   24.773438
    5.7329	  0.006000	  0.024500	  1.007000	   -0.320000	   -0.070000	    0.300000	   24.765625
    5.7427	  0.006000	  0.025000	  1.006500	   -0.460000	   -0.250000	    0.270000	   24.789063
    5.7527	  0.005000	  0.025500	  1.007000	   -0.330000	   -0.110000	    0.200000	   24.800781
    5.7627	  0.008000	  0.025500	  1.006500	   -0.290000	   -0.210000	    0.210000	   24.785156
    5.7727	  0.008000	  0.025000	  1.007500	   -0.260000	   -0.120000	    0.250000	   24.781250
    5.7827	  0.006000	  0.024500	  1.008000	   -0.340000	   -0.340000	    0.320000	   24.757813
    5.7927	  0.005500	  0.025500	  1.007000	   -0.280000	   -0.080000	    0.170000	   24.804688
    5.8027	  0.005500	  0.025000	  1.006500	   -0.390000	   -0.170000	    0.290000	   24.792969
    5.8130	  0.004500	  0.025000	  1.008500	   -0.340000	   -0.210000	    0.160000	   24.792969
    5.8227	  0.004500	  0.025000	  1.006000	   -0.350000	   -0.180000	    0.360000	   24.769531
    5.8327	  0.003000	  0.025500	  1.007000	   -0.450000	    0.000000	    0.290000	   24.785156
    5.8427	  0.004500	  0.025500	  1.008500	   -0.250000	   -0.150000	    0.250000	   24.785156
    5.8527	  0.004000	  0.025500	  1.006500	   -0.360000	   -0.120000	    0.240000	   24.769531
    5.8627	  0.002500	  0.024000	  1.007500	   -0.430000	   -0.180000	    0.330000	   24.757813
    5.8727	  0.003500	  0.025000	  1.006500	   -0.200000	    0.010000	    0.220000	   24.781250
    5.8827	  0.005000	  0.025000	  1.006500	   -0.350000	   -0.150000	    0.250000	   24.781250
    5.8930	  0.004500	  0.025000	  1.008500	   -0.460000	   -0.130000	    0.230000	   24.761719
    5.9027	  0.005500	  0.026000	  1.008000	   -0.370000	   -0.070000	    0.240000	   24.746094
    5.9128	  0.006000	  0.025500	  1.008000	   -0.340000	   -0.080000	    0.330000	   24.777344
    5.9227	  0.006500	  0.025000	  1.007500	   -0.360000	   -0.120000	    0.270000	   24.769531
    5.9328	  0.008000	  0.024500	  1.007500	   -0.420000	   -0.210000	    0.170000	   24.761719
    5.9427	  0.007500	  0.026000	  1.006500	   -0.310000	   -0.230000	    0.190000	   24.777344
    5.9528	  0.004500	  0.026500	  1.008000	   -0.350000	   -0.060000	    0.270000	   24.753906
    5.9627	  0.005000	  0.024500	  1.008000	   -0.290000	   -0.060000	    0.100000	   24.765625
    5.9730	  0.006500	  0.023000	  1.005500	   -0.400000	   -0.080000	    0.340000	   24.804688
    5.9827	  0.002500	  0.023000	  1.009500	   -0.420000	   -0.160000	    0.190000	   24.824219
    5.9928	  0.004500	  0.025000	  1.006000	   -0.380000	   -0.100000	    0.280000	   24.824219
    6.0028	  0.005500	  0.025000	  1.007000	   -0.380000	   -0.140000	    0.230000	   24.804688
    6.0127	  0.001500	  0.024500	  1.008500	   -0.390000	   -0.130000	    0.320000	   24.789063
    6.0228	  0.003000	  0.024000	  1.005500	   -0.280000	   -0.160000	    0.280000	   24.789063
    6.0327	  0.003500	  0.024500	  1.006000	   -0.410000	   -0.090000	    0.300000	   24.789063
    6.0428	  0.003500	  0.026500	  1.006500	   -0.440000	   -0.200000	    0.190000	   24.800781
    6.0530	  0.003000	  0.026000	  1.008000	   -0.310000	   -0.070000	    0.290000	   24.792969
    6.0628	  0.004500	  0.026000	  1.006000	   -0.450000	   -0.110000	    0.210000	   24.781250
    6.0727	  0.005000	  0.026500	  1.007000	   -0.380000	   -0.220000	    0.200000	   24.792969
    6.0828	  0.004500	  0.026000	  1.006500	   -0.400000	   -0.190000	    0.190000	   24.785156
    6.0928	  0.005500	  0.027000	  1.005500	   -0.340000	   -0.100000	    0.270000	   24.769531
    6.1028	  0.007500	  0.025500	  1.007000	   -0.390000	   -0.180000	    0.260000	   24.792969
    6.1127	  0.006000	  0.026500	  1.008500	   -0.270000	   -0.210000	    0.220000	   24.792969
    6.1228	  0.007000	  0.025000	  1.006000	   -0.330000	   -0.170000	    0.390000	   24.761719
    6.1330	  0.007000	  0.024500	  1.008000	   -0.320000	   -0.080000	    0.170000	   24.750000
    6.1428	  0.008000	  0.025000	  1.009000	   -0.290000	   -0.170000	    0.210000	   24.781250
    6.1528	  0.004500	  0.024500	  1.008000	   -0.370000	   -0.160000	    0.150000	   24.800781
    6.1628	  0.006000	  0.022000	  1.006500	   -0.280000	   -0.210000	    0.260000	   24.765625
    6.1727	  0.007000	  0.027000	  1.008500	   -0.460000	   -0.080000	    0.210000	   24.757813
    6.1828	  0.004000	  0.023500	  1.006500	   -0.460000	   -0.190000	    0.210000	   24.785156
    6.1928	  0.003000	  0.025500	  1.008500	   -0.420000	   -0.050000	    0.190000	   24.785156
    6.2028	  0.006000	  0.023000	  1.004500	   -0.400000	   -0.210000	    0.230000	   24.785156
    6.2130	  0.004000	  0.024500	  1.006000	   -0.410000	   -0.080000	    0.260000	   24.781250
    6.2228	  0.002500	  0.023500	  1.006500	   -0.490000	   -0.070000	    0.340000	   24.777344
    6.2328	  0.005500	  0.025500	  1.003500	   -0.400000	   -0.040000	    0.210000	   24.777344
    6.2428	  0.005000	  0.024500	  1.009000	   -0.380000	   -0.130000	    0.260000	   24.781250
    6.2528	  0.004000	  0.025000	  1.006000	   -0.360000	   -0.070000	    0.200000	   24.789063
    6.2628	  0.004500	  0.024000	  1.004000	   -0.530000	   -0.030000	    0.300000	   24.800781
    6.2728	  0.005500	  0.023500	  1.009000	   -0.480000	   -0.160000	    0.210000	   24.800781
    6.2828	  0.006000	  0.026000	  1.005500	   -0.330000	   -0.080000	    0.300000	   24.750000
    6.2930	  0.003500	  0.025000	  1.007000	   -0.460000	   -0.240000	    0.190000	   24.753906
    6.3028	  0.005500	  0.027000	  1.008500	   -0.370000	   -0.060000	    0.270000	   24.761719
    6.3128	  0.009000	  0.024500	  1.006500	   -0.420000	   -0.060000	    0.220000	   24.769531
    6.3228	  0.003000	  0.025500	  1.007500	   -0.350000	   -0.140000	    0.230000	   24.804688
    6.3328	  0.005500	  0.025000	  1.006000	   -0.330000	   -0.180000	    0.100000	   24.804688
    6.3428	  0.006500	  0.025000	  1.007000	   -0.390000	   -0.110000	    0.230000	   24.765625
    6.3528	  0.003000	  0.024500	  1.006000	   -0.350000	   -0.260000	    0.240000	   24.753906
    6.3628	  0.002500	  0.025500	  1.007000	   -0.400000	   -0.270000	    0.270000	   24.753906
    6.3734	  0.005500	  0.025000	  1.007500	   -0.410000	   -0.180000	    0.280000	   24.785156
    6.3828	  0.005000	  0.025000	  1.007000	   -0.360000	   -0.320000	    0.280000	   24.750000
    6.3928	  0.002500	  0.025500	  1.007500	   -0.300000	   -0.050000	    0.250000	   24.773438
    6.4028	  0.006000	  0.026000	  1.008000	   -0.410000	   -0.160000	    0.290000	   24.785156
    6.4128	  0.006000	  0.027000	  1.008000	   -0.390000	   -0.200000	    0.270000	   24.769531
    6.4228	  0.004000	  0.026500	  1.007000	   -0.360000	   -0.120000	    0.220000	   24.777344
    6.4328	  0.005500	  0.026000	  1.008000	   -0.450000	   -0.180000	    0.270000	   24.773438
    6.4428	  0.007000	  0.026500	  1.007500	   -0.520000	   -0.070000	    0.200000	   24.785156
    6.4530	  0.005000	  0.026000	  1.007000	   -0.240000	   -0.040000	    0.170000	   24.789063
    6.4628	  0.006000	  0.025500	  1.007500	   -0.350000	   -0.040000	    0.240000	   24.773438
    6.4728	  0.007000	  0.025500	  1.007500	   -0.340000	   -0.150000	    0.200000	   24.765625
    6.4828	  0.007000	  0.025000	  1.007500	   -0.340000	   -0.130000	    0.190000	   24.792969
    6.4928	  0.005000	  0.024000	  1.008000	   -0.260000	   -0.030000	    0.230000	   24.789063
    6.5028	  0.005000	  0.024500	  1.006500	   -0.540000	   -0.100000	    0.250000	   24.792969
    6.5128	  0.004000	  0.024000	  1.008000	   -0.390000	   -0.160000	    0.250000	   24.785156
    6.5228	  0.003500	  0.024000	  1.005500	   -0.460000	   -0.170000	    0.260000	   24.789063
    6.5330	  0.003000	  0.025000	  1.007500	   -0.390000	   -0.170000	    0.190000	   24.804688
    6.5428	  0.003000	  0.023500	  1.006500	   -0.400000	   -0.190000	    0.290000	   24.804688
    6.5528	  0.003500	  0.024500	  1.006500	   -0.340000	   -0.140000	    0.230000	   24.781250
    6.5629	  0.003000	  0.025000	  1.008000	   -0.430000	   -0.040000	    0.280000	   24.781250
    6.5728	  0.005500	  0.025500	  1.005500	   -0.330000	   -0.200000	    0.230000	   24.812500
    6.5828	  0.005000	  0.025500	  1.005000	   -0.340000	   -0.210000	    0.210000	   24.812500
    6.5928	  0.005000	  0.025500	  1.006500	   -0.300000	   -0.180000	    0.210000	   24.785156
    6.6028	  0.008500	  0.025000	  1.005000	   -0.360000	   -0.110000	    0.320000	   24.781250
    6.6130	  0.008000	  0.026000	  1.006500	   -0.390000	   -0.120000	    0.220000	   24.750000
    6.6228	  0.007500	  0.027500	  1.006500	   -0.450000	   -0.190000	    0.280000	   24.773438
    6.6328	  0.005500	  0.026500	  1.008500	   -0.360000	   -0.260000	    0.230000	   24.761719
    6.6428	  0.007500	  0.024500	  1.004000	   -0.330000	   -0.060000	    0.330000	   24.777344
    6.6528	  0.006500	  0.024500	  1.007000	   -0.390000	   -0.230000	    0.240000	   24.785156
    6.6628	  0.002000	  0.025000	  1.009500	   -0.370000	   -0.030000	    0.230000	   24.773438
    6.6728	  0.003500	  0.025000	  1.005500	   -0.390000	   -0.080000	    0.250000	   24.765625
    6.6828	  0.004000	  0.024500	  1.009000	   -0.360000	   -0.210000	    0.260000	   24.750000
    6.6930	  0.000500	  0.024500	  1.009000	   -0.550000	   -0.020000	    0.250000	   24.769531
    6.7028	  0.003500	  0.025500	  1.005000	   -0.350000	   -0.120000	    0.300000	   24.781250
    6.7128	  0.004500	  0.022500	  1.010000	   -0.330000	   -0.150000	    0.300000	   24.792969
    6.7228	  0.004500	  0.026000	  1.008000	   -0.530000	   -0.120000	    0.310000	   24.785156
    6.7328	  0.003500	  0.025000	  1.006000	   -0.370000	   -0.120000	    0.300000	   24.785156
    6.7428	  0.005500	  0.026000	  1.008500	   -0.310000	   -0.050000	    0.180000	   24.792969
    6.7528	  0.008000	  0.025000	  1.005500	   -0.380000	   -0.120000	    0.220000	   24.789063
    6.7628	  0.006000	  0.025000	  1.005500	   -0.330000	   -0.170000	    0.230000	   24.777344
    6.7730	  0.006000	  0.025500	  1.007000	   -0.350000	   -0.070000	    0.240000	   24.769531
    6.7828	  0.007500	  0.026000	  1.006000	   -0.410000	   -0.190000	    0.220000	   24.777344
    6.7928	  0.004000	  0.025500	  1.006500	   -0.330000	   -0.190000	    0.330000	   24.781250
    6.8028	  0.004500	  0.025500	  1.007000	   -0.410000	   -0.220000	    0.210000	   24.750000
    6.8128	  0.004500	  0.025500	  1.007500	   -0.410000	   -0.090000	    0.230000	   24.765625
    6.8228	  0.003500	  0.024000	  1.007500	   -0.340000	   -0.180000	    0.230000	   24.781250
    6.8328	  0.003000	  0.025000	  1.007500	   -0.330000	   -0.130000	    0.290000	   24.781250
    6.8428	  0.005000	  0.025500	  1.006500	   -0.390000	   -0.180000	    0.270000	   24.769531
    6.8530	  0.004500	  0.024500	  1.007000	   -0.350000	   -0.140000	    0.280000	   24.769531
    6.8628	  0.005500	  0.025500	  1.006500	   -0.350000	   -0.200000	    0.330000	   24.769531
    6.8728	  0.005000	  0.025000	  1.006500	   -0.390000	   -0.150000	    0.250000	   24.769531
    6.8828	  0.006000	  0.024500	  1.006500	   -0.360000	   -0.090000	    0.170000	   24.777344
    6.8928	  0.005500	  0.025000	  1.008000	   -0.380000	   -0.140000	    0.200000	   24.769531
    6.9028	  0.004500	  0.026500	  1.008000	   -0.380000	   -0.010000	    0.370000	   24.785156
    6.9128	  0.006500	  0.025000	  1.006500	   -0.410000	   -0.150000	    0.210000	   24.792969
    6.9228	  0.006000	  0.026500	  1.008000	   -0.390000	   -0.160000	    0.180000	   24.785156
    6.9330	  0.005500	  0.025500	  1.006500	   -0.360000	   -0.080000	    0.290000	   24.781250
    6.9428	  0.007000	  0.025000	  1.006500	   -0.440000	   -0.160000	    0.230000	   24.773438
    6.9528	  0.006500	  0.026000	  1.007500	   -0.330000	   -0.250000	    0.310000	   24.773438
    6.9628	  0.005000	  0.025500	  1.006000	   -0.350000	   -0.150000	    0.250000	   24.781250
    6.9728	  0.005000	  0.025500	  1.007000	   -0.400000	   -0.120000	    0.210000	   24.800781
    6.9828	  0.006000	  0.025500	  1.007000	   -0.330000	   -0.080000	    0.220000	   24.792969
    6.9928	  0.004000	  0.023500	  1.007500	   -0.260000	   -0.230000	    0.250000	   24.785156
    7.0028	  0.004000	  0.024000	  1.006500	   -0.460000	   -0.060000	    0.300000	   24.785156
    7.0130	  0.006000	  0.023500	  1.007000	   -0.240000	   -0.070000	    0.320000	   24.789063
    7.0228	  0.003500	  0.024000	  1.008000	   -0.400000	   -0.190000	    0.200000	   24.792969
    7.0328	  0.004500	  0.024500	  1.006500	   -0.410000	   -0.100000	    0.170000	   24.789063
    7.0428	  0.005500	  0.024500	  1.008000	   -0.310000	   -0.170000	    0.230000	   24.769531
    7.0528	  0.004500	  0.025000	  1.007000	   -0.360000	   -0.090000	    0.340000	   24.750000
    7.0628	  0.007000	  0.026000	  1.005500	   -0.450000	   -0.170000	    0.270000	   24.773438
    7.0728	  0.005500	  0.025000	  1.008000	   -0.530000	   -0.210000	    0.280000	   24.785156
    7.0828	  0.006500	  0.024500	  1.005500	   -0.450000	   -0.220000	    0.340000	   24.781250
    7.0930	  0.005500	  0.025000	  1.008500	   -0.500000	   -0.180000	    0.310000	   24.769531
    7.1029	  0.004500	  0.024500	  1.005500	   -0.250000	   -0.210000	    0.200000	   24.777344
    7.1128	  0.005500	  0.026000	  1.008500	   -0.380000	   -0.090000	    0.150000	   24.808594
    7.1228	  0.004500	  0.025000	  1.007000	   -0.260000	   -0.190000	    0.160000	   24.804688
    7.1328	  0.004500	  0.025500	  1.006500	   -0.330000	   -0.150000	    0.280000	   24.812500
    7.1428	  0.006000	  0.025000	  1.009000	   -0.420000	   -0.210000	    0.330000	   24.796875
    7.1528	  0.005000	  0.025500	  1.007000	   -0.340000	   -0.030000	    0.250000	   24.789063
    7.1628	  0.004000	  0.025500	  1.007000	   -0.310000	   -0.190000	    0.240000	   24.785156
    7.1730	  0.005000	  0.025500	  1.007500	   -0.260000	   -0.060000	    0.260000	   24.792969
    7.1828	  0.005000	  0.025000	  1.006000	   -0.300000	   -0.070000	    0.270000	   24.792969
    7.1928	  0.005000	  0.025500	  1.007000	   -0.230000	   -0.080000	    0.300000	   24.769531
    7.2029	  0.004500	  0.023500	  1.007500	   -0.360000	   -0.160000	    0.260000	   24.781250
    7.2128	  0.006000	  0.025000	  1.006500	   -0.510000	   -0.100000	    0.200000	   24.785156
    7.2228	  0.005500	  0.025000	  1.006500	   -0.380000	   -0.170000	    0.280000	   24.777344
    7.2328	  0.005000	  0.026000	  1.007500	   -0.420000	   -0.190000	    0.260000	   24.750000
    7.2428	  0.005500	  0.024000	  1.007000	   -0.350000	   -0.130000	    0.320000	   24.777344
    7.2530	  0.005000	  0.026500	  1.006500	   -0.360000	   -0.150000	    0.300000	   24.812500
    7.2628	  0.004500	  0.025000	  1.007000	   -0.270000	   -0.120000	    0.340000	   24.800781
    7.2728	  0.006500	  0.025000	  1.006500	   -0.400000	   -0.170000	    0.250000	   24.792969
    7.2828	  0.004500	  0.026000	  1.006500	   -0.400000	   -0.110000	    0.220000	   24.785156
    7.2928	  0.004500	  0.025000	  1.006500	   -0.350000	   -0.140000	    0.210000	   24.796875
    7.3028	  0.005500	  0.026500	  1.006000	   -0.280000	   -0.030000	    0.230000	   24.812500
    7.3128	  0.004500	  0.025500	  1.008500	   -0.300000	   -0.170000	    0.390000	   24.808594
    7.3228	  0.004000	  0.025000	  1.005500	   -0.540000	   -0.220000	    0.240000	   24.804688
    7.3331	  0.004000	  0.025000	  1.007000	   -0.380000	   -0.120000	    0.180000	   24.808594
    7.3428	  0.003500	  0.025000	  1.007500	   -0.470000	   -0.060000	    0.250000	   24.785156
    7.3528	  0.003500	  0.026000	  1.007000	   -0.400000	   -0.090000	    0.270000	   24.792969
    7.3628	  0.005000	  0.025000	  1.007000	   -0.360000	   -0.330000	    0.110000	   24.777344
    7.3732	  0.005000	  0.025000	  1.005500	   -0.360000	   -0.200000	    0.230000	   24.796875
    7.3828	  0.005000	  0.025500	  1.006500	   -0.330000	   -0.080000	    0.200000	   24.789063
    7.3928	  0.005500	  0.024500	  1.007000	   -0.390000	   -0.180000	    0.200000	   24.777344
    7.4028	  0.005000	  0.025500	  1.007500	   -0.380000	   -0.200000	    0.260000	   24.757813
    7.4131	  0.005000	  0.025000	  1.007500	   -0.450000	   -0.250000	    0.280000	   24.789063
    7.4228	  0.005500	  0.024000	  1.006500	   -0.540000	   -0.170000	    0.370000	   24.792969
    7.4328	  0.005000	  0.024500	  1.008500	   -0.340000	   -0.230000	    0.070000	   24.785156
    7.4428	  0.004000	  0.023500	  1.006500	   -0.310000	   -0.210000	    0.250000	   24.792969
    7.4528	  0.004500	  0.025500	  1.007000	   -0.390000	   -0.080000	    0.220000	   24.773438
    7.4628	  0.004500	  0.026000	  1.007500	   -0.320000	   -0.160000	    0.190000	   24.789063
    7.4728	  0.004500	  0.025000	  1.007500	   -0.280000	   -0.090000	    0.270000	   24.792969
    7.4828	  0.004000	  0.025000	  1.008000	   -0.400000	   -0.130000	    0.250000	   24.781250
    7.4931	  0.006000	  0.024000	  1.007000	   -0.350000	   -0.070000	    0.280000	   24.785156
    7.5028	  0.005500	  0.026500	  1.008500	   -0.380000	   -0.280000	    0.350000	   24.761719
    7.5129	  0.004500	  0.025000	  1.008000	   -0.430000	   -0.220000	    0.250000	   24.773438
    7.5228	  0.004500	  0.026000	  1.006500	   -0.460000	   -0.230000	    0.250000	   24.777344
    7.5329	  0.004000	  0.026000	  1.009500	   -0.410000	   -0.180000	    0.250000	   24.761719
    7.5428	  0.005500	  0.025000	  1.007000	   -0.300000	   -0.180000	    0.220000	   24.765625
    7.5528	  0.005000	  0.026500	  1.008500	   -0.340000	   -0.230000	    0.160000	   24.792969
    7.5628	  0.004500	  0.025500	  1.007000	   -0.410000	   -0.220000	    0.210000	   24.796875
    7.5731	  0.005500	  0.026500	  1.008500	   -0.270000	   -0.170000	    0.210000	   24.773438
    7.5828	  0.006000	  0.026000	  1.007500	   -0.310000	   -0.180000	    0.300000	   24.765625
    7.5929	  0.004000	  0.025500	  1.006000	   -0.330000	   -0.120000	    0.300000	   24.792969
    7.6028	  0.005000	  0.023000	  1.007500	   -0.490000	   -0.210000	    0.400000	   24.808594
    7.6129	  0.008000	  0.024000	  1.006500	   -0.400000	   -0.250000	    0.300000	   24.785156
    7.6228	  0.005500	  0.026000	  1.008500	   -0.310000	   -0.020000	    0.330000	   24.789063
    7.6328	  0.006000	  0.025000	  1.006500	   -0.320000	   -0.190000	    0.210000	   24.781250
    7.6428	  0.009000	  0.026000	  1.005500	   -0.430000	   -0.170000	    0.190000	   24.792969
    7.6531	  0.004000	  0.026500	  1.007500	   -0.160000	   -0.180000	    0.140000	   24.792969
    7.6628	  0.004500	  0.025500	  1.004000	   -0.460000	   -0.090000	    0.160000	   24.785156
    7.6728	  0.006000	  0.024500	  1.006500	   -0.360000	   -0.160000	    0.240000	   24.789063
    7.6828	  0.003500	  0.025000	  1.007000	   -0.310000	   -0.180000	    0.240000	   24.789063
    7.6929	  0.003000	  0.025500	  1.007500	   -0.440000	   -0.090000	    0.160000	   24.796875
    7.7028	  0.003500	  0.023500	  1.009000	   -0.380000	   -0.160000	    0.160000	   24.785156
    7.7129	  0.004500	  0.025000	  1.009500	   -0.350000	   -0.100000	    0.290000	   24.769531
    7.7228	  0.003000	  0.025000	  1.007500	   -0.470000	   -0.190000	    0.260000	   24.781250
    7.7331	  0.004500	  0.025500	  1.009000	   -0.320000	   -0.140000	    0.260000	   24.785156
    7.7429	  0.007500	  0.025000	  1.007000	   -0.360000	   -0.160000	    0.180000	   24.785156
    7.7529	  0.006500	  0.026500	  1.007000	   -0.400000	   -0.130000	    0.230000	   24.765625
    7.7629	  0.007000	  0.026500	  1.007000	   -0.380000	   -0.140000	    0.220000	   24.765625
    7.7729	  0.008000	  0.023500	  1.008500	   -0.460000	   -0.160000	    0.150000	   24.789063
    7.7828	  0.005000	  0.025500	  1.007000	   -0.340000	   -0.190000	    0.340000	   24.796875
    7.7929	  0.005500	  0.025000	  1.006000	   -0.430000	   -0.060000	    0.200000	   24.792969
    7.8028	  0.006000	  0.026000	  1.007500	   -0.340000	   -0.060000	    0.330000	   24.789063
    7.8131	  0.004500	  0.027000	  1.007000	   -0.260000	   -0.190000	    0.240000	   24.792969
    7.8229	  0.003000	  0.026500	  1.007000	   -0.370000	   -0.280000	    0.320000	   24.781250
    7.8329	  0.005000	  0.026500	  1.009000	   -0.300000	   -0.120000	    0.190000	   24.777344
    7.8429	  0.004500	  0.025500	  1.008500	   -0.360000	   -0.080000	    0.250000	   24.781250
    7.8529	  0.004000	  0.026500	  1.008500	   -0.360000	   -0.050000	    0.270000	   24.769531
    7.8629	  0.005000	  0.026000	  1.007000	   -0.400000	   -0.060000	    0.260000	   24.785156
    7.8729	  0.006000	  0.025000	  1.008000	   -0.320000	   -0.100000	    0.270000	   24.789063
    7.8829	  0.006500	  0.026000	  1.006500	   -0.330000	   -0.190000	    0.270000	   24.789063
    7.8931	  0.004500	  0.024500	  1.007500	   -0.430000	   -0.100000	    0.210000	   24.781250
    7.9029	  0.006500	  0.024500	  1.006500	   -0.260000	   -0.120000	    0.210000	   24.765625
    7.9129	  0.005500	  0.023000	  1.006500	   -0.360000	   -0.180000	    0.190000	   24.757813
    7.9229	  0.003500	  0.024000	  1.007500	   -0.250000	   -0.170000	    0.230000	   24.796875
    7.9329	  0.005000	  0.024000	  1.006500	   -0.360000	   -0.090000	    0.320000	   24.781250
    7.9429	  0.005500	  0.024500	  1.008000	   -0.290000	   -0.090000	    0.290000	   24.746094
    7.9529	  0.004000	  0.024500	  1.006000	   -0.370000	   -0.030000	    0.250000	   24.750000
    7.9629	  0.004000	  0.023500	  1.007000	   -0.440000	   -0.180000	    0.390000	   24.769531
    7.9731	  0.003500	  0.024000	  1.007000	   -0.400000	   -0.260000	    0.250000	   24.789063
    7.9829	  0.005000	  0.026500	  1.006500	   -0.280000	   -0.050000	    0.310000	   24.781250
    7.9929	  0.005000	  0.026000	  1.008000	   -0.270000	   -0.140000	    0.190000	   24.804688
    8.0029	  0.005500	  0.025500	  1.006500	   -0.380000	   -0.160000	    0.300000	   24.781250
    8.0129	  0.003500	  0.025500	  1.007500	   -0.310000	   -0.160000	    0.110000	   24.792969
    8.0229	  0.006000	  0.025000	  1.007500	   -0.360000	   -0.170000	    0.250000	   24.792969
    8.0329	  0.006000	  0.027000	  1.006000	   -0.410000	   -0.230000	    0.220000	   24.765625
    8.0429	  0.005000	  0.025000	  1.007000	   -0.440000	   -0.180000	    0.180000	   24.773438
    8.0531	  0.005000	  0.025500	  1.006500	   -0.370000	    0.050000	    0.260000	   24.800781
    8.0629	  0.006000	  0.026500	  1.007000	   -0.350000	   -0.220000	    0.400000	   24.789063
    8.0729	  0.005500	  0.025500	  1.006500	   -0.410000	   -0.100000	    0.280000	   24.769531
    8.0829	  0.006000	  0.025500	  1.006500	   -0.430000	   -0.110000	    0.310000	   24.765625
    8.0929	  0.004000	  0.025000	  1.008000	   -0.520000	   -0.210000	    0.240000	   24.761719
    8.1029	  0.004000	  0.026000	  1.007000	   -0.260000	   -0.170000	    0.280000	   24.773438
    8.1129	  0.004500	  0.026000	  1.007500	   -0.360000	   -0.250000	    0.180000	   24.777344
    8.1229	  0.004000	  0.025000	  1.007500	   -0.410000	   -0.110000	    0.310000	   24.785156
    8.1331	  0.005500	  0.025000	  1.008000	   -0.440000	   -0.130000	    0.180000	   24.769531
    8.1429	  0.006500	  0.024500	  1.008000	   -0.400000	   -0.240000	    0.150000	   24.769531
    8.1529	  0.006500	  0.024500	  1.007000	   -0.280000	   -0.150000	    0.290000	   24.785156
    8.1629	  0.006000	  0.025000	  1.008500	   -0.370000	   -0.100000	    0.240000	   24.785156
    8.1729	  0.006500	  0.025000	  1.007000	   -0.420000	   -0.100000	    0.340000	   24.812500
    8.1829	  0.004500	  0.025000	  1.007500	   -0.460000	   -0.130000	    0.320000	   24.777344
    8.1929	  0.005000	  0.025000	  1.006500	   -0.370000	   -0.040000	    0.200000	   24.789063
    8.2029	  0.005500	  0.025000	  1.007000	   -0.360000	   -0.080000	    0.220000	   24.765625
    8.2131	  0.004000	  0.023500	  1.009000	   -0.420000	   -0.290000	    0.270000	   24.750000
    8.2229	  0.004500	  0.025000	  1.006500	   -0.370000	   -0.050000	    0.190000	   24.789063
    8.2329	  0.004500	  0.024500	  1.007000	   -0.440000	   -0.300000	    0.270000	   24.796875
    8.2429	  0.004500	  0.025000	  1.006500	   -0.360000	   -0.030000	    0.180000	   24.777344
    8.2529	  0.005500	  0.024000	  1.004500	   -0.360000	   -0.150000	    0.220000	   24.765625
    8.2629	  0.005500	  0.024500	  1.007500	   -0.320000	   -0.020000	    0.190000	   24.789063
    8.2729	  0.005500	  0.024500	  1.005500	   -0.360000	   -0.180000	    0.270000	   24.796875
    8.2829	  0.005500	  0.025500	  1.006500	   -0.440000	    0.000000	    0.240000	   24.769531
    8.2931	  0.007000	  0.024500	  1.007500	   -0.330000	   -0.120000	    0.170000	   24.773438
    8.3029	  0.006000	  0.025000	  1.006500	   -0.440000	   -0.150000	    0.150000	   24.773438
    8.3129	  0.006000	  0.024500	  1.008000	   -0.330000	   -0.250000	    0.160000	   24.757813
    8.3229	  0.005000	  0.025500	  1.006000	   -0.400000	   -0.160000	    0.350000	   24.781250
    8.3329	  0.005000	  0.025000	  1.007500	   -0.390000	   -0.120000	    0.320000	   24.777344
    8.3429	  0.004500	  0.025000	  1.007000	   -0.330000	   -0.140000	    0.210000	   24.781250
    8.3529	  0.004000	  0.025500	  1.008000	   -0.510000	   -0.060000	    0.280000	   24.781250
    8.3629	  0.004000	  0.024000	  1.007500	   -0.360000	    0.020000	    0.200000	   24.777344
    8.3735	  0.004500	  0.024500	  1.006500	   -0.390000	    0.000000	    0.280000	   24.792969
    8.3829	  0.004500	  0.025000	  1.007000	   -0.350000	    0.010000	    0.190000	   24.792969
    8.3929	  0.005500	  0.025500	  1.006500	   -0.290000	   -0.130000	    0.190000	   24.800781
    8.4029	  0.006000	  0.024000	  1.007500	   -0.430000	   -0.130000	    0.260000	   24.789063
    8.4129	  0.006000	  0.024000	  1.006500	   -0.220000	   -0.100000	    0.170000	   24.773438
    8.4229	  0.005500	  0.026000	  1.006500	   -0.380000	   -0.030000	    0.240000	   24.765625
    8.4329	  0.005000	  0.024500	  1.008000	   -0.280000	   -0.130000	    0.360000	   24.773438
    8.4429	  0.005000	  0.026000	  1.006500	   -0.400000	   -0.160000	    0.240000	   24.777344
    8.4531	  0.004500	  0.025000	  1.006500	   -0.370000	   -0.030000	    0.300000	   24.769531
    8.4629	  0.003500	  0.025000	  1.008000	   -0.430000	   -0.150000	    0.200000	   24.785156
    8.4729	  0.005000	  0.026500	  1.006000	   -0.470000	   -0.180000	    0.240000	   24.785156
    8.4829	  0.004500	  0.025500	  1.009000	   -0.450000	   -0.120000	    0.230000	   24.777344
    8.4929	  0.005000	  0.025500	  1.006000	   -0.410000	   -0.140000	    0.370000	   24.750000
    8.5030	  0.004500	  0.025500	  1.008000	   -0.410000	   -0.160000	    0.180000	   24.777344
    8.5130	  0.006000	  0.025500	  1.006500	   -0.290000	   -0.040000	    0.180000	   24.781250
    8.5229	  0.006000	  0.026000	  1.006000	   -0.330000	   -0.030000	    0.210000	   24.781250
    8.5331	  0.004500	  0.024500	  1.007500	   -0.430000	   -0.200000	    0.240000	   24.781250
    8.5429	  0.004500	  0.025500	  1.007000	   -0.350000	   -0.140000	    0.260000	   24.820313
    8.5529	  0.005000	  0.025500	  1.006500	   -0.460000	   -0.160000	    0.220000	   24.820313
    8.5629	  0.005000	  0.025500	  1.008500	   -0.340000	   -0.040000	    0.370000	   24.812500
    8.5729	  0.005000	  0.025500	  1.006000	   -0.440000	   -0.070000	    0.290000	   24.777344
    8.5829	  0.004500	  0.026500	  1.006500	   -0.350000	   -0.190000	    0.230000	   24.781250
    8.5929	  0.004500	  0.025500	  1.006000	   -0.400000	   -0.060000	    0.250000	   24.816406
    8.6029	  0.004500	  0.026500	  1.008500	   -0.410000	   -0.170000	    0.250000	   24.773438
    8.6132	  0.005000	  0.024500	  1.007500	   -0.440000	   -0.100000	    0.300000	   24.765625
    8.6229	  0.004500	  0.024500	  1.007000	   -0.340000	   -0.140000	    0.200000	   24.781250
    8.6329	  0.005000	  0.024500	  1.008000	   -0.300000	   -0.020000	    0.170000	   24.765625
    8.6429	  0.005000	  0.025000	  1.008000	   -0.330000	   -0.030000	    0.240000	   24.746094
    8.6529	  0.004500	  0.025000	  1.007500	   -0.290000	   -0.080000	    0.230000	   24.796875
    8.6629	  0.005500	  0.025000	  1.006500	   -0.320000	   -0.230000	    0.190000	   24.781250
    8.6729	  0.005500	  0.025000	  1.008000	   -0.360000	   -0.210000	    0.300000	   24.785156
    8.6829	  0.005500	  0.025500	  1.007500	   -0.500000	   -0.190000	    0.260000	   24.777344
    8.6931	  0.005500	  0.023500	  1.006000	   -0.300000	   -0.050000	    0.240000	   24.761719
    8.7029	  0.005500	  0.026000	  1.008000	   -0.370000	   -0.200000	    0.230000	   24.765625
    8.7129	  0.004500	  0.025000	  1.008000	   -0.330000	   -0.150000	    0.290000	   24.765625
    8.7229	  0.005500	  0.024500	  1.007500	   -0.410000	   -0.280000	    0.240000	   24.765625
    8.7329	  0.004500	  0.025000	  1.008000	   -0.400000	   -0.090000	    0.390000	   24.781250
    8.7429	  0.005000	  0.025000	  1.008000	   -0.360000	   -0.090000	    0.220000	   24.785156
    8.7529	  0.005500	  0.026000	  1.007000	   -0.460000	   -0.130000	    0.240000	   24.792969
    8.7629	  0.005500	  0.025000	  1.007500	   -0.360000	   -0.160000	    0.280000	   24.777344
    8.7731	  0.005500	  0.025000	  1.007500	   -0.290000	   -0.040000	    0.210000	   24.765625
    8.7829	  0.006000	  0.025500	  1.006500	   -0.300000	   -0.170000	    0.350000	   24.785156
    8.7929	  0.006000	  0.025000	  1.006500	   -0.290000	   -0.080000	    0.310000	   24.792969
    8.8029	  0.005000	  0.025000	  1.005500	   -0.280000	   -0.160000	    0.210000	   24.796875
    8.8130	  0.006000	  0.027000	  1.007500	   -0.340000	   -0.110000	    0.180000	   24.792969
    8.8229	  0.006000	  0.026000	  1.006000	   -0.410000	   -0.240000	    0.270000	   24.773438
    8.8329	  0.004500	  0.025500	  1.007500	   -0.390000	   -0.160000	    0.230000	   24.800781
    8.8429	  0.004000	  0.025000	  1.007500	   -0.250000	   -0.270000	    0.240000	   24.789063
    8.8531	  0.005000	  0.024500	  1.005500	   -0.380000	   -0.160000	    0.280000	   24.765625
    8.8629	  0.005500	  0.025500	  1.006500	   -0.310000	   -0.120000	    0.250000	   24.765625
    8.8729	  0.005500	  0.024500	  1.006500	   -0.390000	   -0.220000	    0.210000	   24.796875
    8.8829	  0.004500	  0.023500	  1.007500	   -0.380000	   -0.170000	    0.190000	   24.792969
    8.8929	  0.005000	  0.024500	  1.007000	   -0.380000	   -0.120000	    0.250000	   24.785156
    8.9029	  0.005000	  0.024000	  1.009000	   -0.430000	   -0.190000	    0.240000	   24.785156
    8.9130	  0.006500	  0.024000	  1.006000	   -0.280000	   -0.170000	    0.270000	   24.781250
    8.9229	  0.006000	  0.025500	  1.007500	   -0.270000	   -0.180000	    0.250000	   24.796875
    8.9331	  0.005000	  0.024000	  1.007000	   -0.340000	   -0.070000	    0.250000	   24.792969
    8.9429	  0.006000	  0.026500	  1.007500	   -0.440000	    0.020000	    0.220000	   24.789063
    8.9529	  0.005500	  0.025500	  1.007500	   -0.430000	   -0.140000	    0.300000	   24.777344
    8.9629	  0.005000	  0.025500	  1.007500	   -0.350000	   -0.150000	    0.240000	   24.796875
    8.9729	  0.004000	  0.025500	  1.006500	   -0.410000	   -0.040000	    0.300000	   24.792969
    8.9829	  0.006000	  0.025000	  1.008000	   -0.310000	   -0.110000	    0.250000	   24.785156
    8.9929	  0.004500	  0.026500	  1.008000	   -0.410000	   -0.160000	    0.290000	   24.789063
    9.0029	  0.005500	  0.025500	  1.006500	   -0.420000	   -0.250000	    0.250000	   24.800781
    9.0132	  0.004000	  0.025000	  1.007000	   -0.530000	   -0.180000	    0.330000	   24.800781
    9.0229	  0.005500	  0.025000	  1.007500	   -0.390000	   -0.140000	    0.310000	   24.792969
    9.0329	  0.005500	  0.024500	  1.006000	   -0.290000	   -0.080000	    0.320000	   24.777344
    9.0429	  0.004500	  0.026500	  1.005500	   -0.410000	   -0.020000	    0.210000	   24.769531
    9.0529	  0.005500	  0.024500	  1.008000	   -0.310000	    0.030000	    0.220000	   24.777344
    9.0629	  0.006000	  0.025000	  1.005500	   -0.370000	   -0.180000	    0.230000	   24.769531
    9.0729	  0.005000	  0.025000	  1.006000	   -0.490000	   -0.270000	    0.270000	   24.792969
    9.0829	  0.004500	  0.026000	  1.008500	   -0.300000	    0.000000	    0.150000	   24.804688
    9.0932	  0.007000	  0.026000	  1.006500	   -0.390000	   -0.160000	    0.210000	   24.792969
    9.1029	  0.004500	  0.024000	  1.006000	   -0.440000	   -0.290000	    0.220000	   24.816406
    9.1130	  0.005000	  0.024500	  1.006500	   -0.330000	   -0.130000	    0.190000	   24.796875
    9.1229	  0.004500	  0.024500	  1.008500	   -0.390000	   -0.210000	    0.290000	   24.765625
    9.1329	  0.005500	  0.025000	  1.006000	   -0.370000	   -0.180000	    0.200000	   24.785156
    9.1429	  0.005500	  0.025000	  1.006000	   -0.370000	   -0.220000	    0.210000	   24.800781
    9.1530	  0.005000	  0.024500	  1.007000	   -0.400000	   -0.090000	    0.250000	   24.816406
    9.1629	  0.005000	  0.024500	  1.007000	   -0.440000	   -0.150000	    0.230000	   24.804688
    9.1731	  0.004500	  0.025000	  1.007500	   -0.400000	   -0.090000	    0.280000	   24.792969
    9.1829	  0.004000	  0.024500	  1.006500	   -0.400000	   -0.190000	    0.260000	   24.796875
    9.1929	  0.005500	  0.026000	  1.008500	   -0.250000	   -0.130000	    0.270000	   24.785156
    9.2029	  0.004000	  0.024500	  1.008000	   -0.260000	   -0.060000	    0.160000	   24.773438
    9.2130	  0.005000	  0.025500	  1.006000	   -0.340000	   -0.090000	    0.190000	   24.773438
    9.2229	  0.005500	  0.025500	  1.006500	   -0.430000	   -0.150000	    0.300000	   24.765625
    9.2329	  0.005000	  0.025000	  1.006500	   -0.400000	   -0.250000	    0.180000	   24.796875
    9.2429	  0.005000	  0.025000	  1.008000	   -0.400000	   -0.080000	    0.270000	   24.828125
    9.2531	  0.005000	  0.025500	  1.006500	   -0.400000	   -0.110000	    0.250000	   24.816406
    9.2629	  0.006000	  0.024000	  1.007000	   -0.420000	   -0.150000	    0.340000	   24.804688
    9.2729	  0.006000	  0.025000	  1.007500	   -0.350000	   -0.180000	    0.330000	   24.792969
    9.2829	  0.005500	  0.025000	  1.006500	   -0.360000	   -0.190000	    0.190000	   24.785156
    9.2929	  0.005000	  0.025500	  1.006000	   -0.340000	   -0.180000	    0.210000	   24.808594
    9.3029	  0.004500	  0.025000	  1.007500	   -0.460000	   -0.010000	    0.320000	   24.808594
    9.3129	  0.005500	  0.026000	  1.006000	   -0.380000	   -0.200000	    0.220000	   24.777344
    9.3229	  0.005000	  0.024500	  1.007500	   -0.350000	   -0.100000	    0.300000	   24.781250
    9.3332	  0.005000	  0.025500	  1.007000	   -0.350000	   -0.120000	    0.200000	   24.789063
    9.3429	  0.004500	  0.026000	  1.006000	   -0.290000	   -0.150000	    0.250000	   24.800781
    9.3529	  0.004500	  0.025500	  1.007000	   -0.360000	   -0.120000	    0.140000	   24.789063
    9.3629	  0.004500	  0.025500	  1.007500	   -0.290000	   -0.070000	    0.250000	   24.765625
    9.3733	  0.004500	  0.025000	  1.008000	   -0.440000	    0.000000	    0.140000	   24.781250
    9.3829	  0.005000	  0.026000	  1.006500	   -0.340000	   -0.030000	    0.320000	   24.777344
    9.3930	  0.005000	  0.024500	  1.006500	   -0.240000	   -0.220000	    0.280000	   24.792969
    9.4029	  0.005000	  0.025500	  1.007000	   -0.310000	   -0.110000	    0.150000	   24.789063
    9.4132	  0.005500	  0.025000	  1.007000	   -0.380000	   -0.090000	    0.360000	   24.781250
    9.4230	  0.006000	  0.025500	  1.006000	   -0.500000	   -0.210000	    0.270000	   24.777344
    9.4329	  0.005000	  0.025500	  1.009000	   -0.410000	   -0.220000	    0.230000	   24.761719
    9.4430	  0.004500	  0.025500	  1.006000	   -0.390000	   -0.090000	    0.250000	   24.781250
    9.4529	  0.005000	  0.026000	  1.007500	   -0.270000	   -0.120000	    0.180000	   24.781250
    9.4630	  0.006500	  0.027500	  1.006500	   -0.410000	   -0.080000	    0.210000	   24.781250
    9.4729	  0.005000	  0.024000	  1.005500	   -0.330000	   -0.030000	    0.160000	   24.796875
    9.4830	  0.004500	  0.025000	  1.007000	   -0.400000	   -0.120000	    0.250000	   24.789063
    9.4932	  0.005000	  0.025000	  1.007500	   -0.320000	   -0.080000	    0.240000	   24.769531
    9.5030	  0.004500	  0.025000	  1.008500	   -0.370000	   -0.090000	    0.220000	   24.777344
    9.5130	  0.005500	  0.025000	  1.007000	   -0.390000	   -0.150000	    0.150000	   24.789063
    9.5230	  0.005000	  0.025000	  1.007500	   -0.420000	   -0.170000	    0.280000	   24.785156
    9.5330	  0.005500	  0.024500	  1.007000	   -0.460000	   -0.040000	    0.350000	   24.808594
    9.5430	  0.004500	  0.025000	  1.007500	   -0.410000	   -0.180000	    0.250000	   24.789063
    9.5530	  0.005500	  0.025500	  1.007500	   -0.380000	   -0.190000	    0.250000	   24.800781
    9.5630	  0.005500	  0.024000	  1.007500	   -0.310000	   -0.090000	    0.290000	   24.800781
    9.5732	  0.005500	  0.024000	  1.005500	   -0.320000	   -0.140000	    0.230000	   24.765625
    9.5830	  0.005000	  0.024500	  1.009000	   -0.400000	   -0.030000	    0.220000	   24.765625
    9.5930	  0.004500	  0.025000	  1.007000	   -0.410000	   -0.170000	    0.210000	   24.750000
    9.6030	  0.004500	  0.025500	  1.008500	   -0.370000	   -0.200000	    0.190000	   24.781250
    9.6130	  0.005000	  0.024500	  1.006500	   -0.440000	   -0.150000	    0.320000	   24.808594
    9.6231	  0.005500	  0.026500	  1.007500	   -0.390000	   -0.180000	    0.300000	   24.773438
    9.6330	  0.004000	  0.025500	  1.006500	   -0.430000	   -0.160000	    0.230000	   24.781250
    9.6430	  0.004000	  0.025500	  1.006000	   -0.400000	   -0.180000	    0.260000	   24.781250
    9.6532	  0.005500	  0.025000	  1.006500	   -0.220000	   -0.010000	    0.200000	   24.777344
    9.6630	  0.004500	  0.025000	  1.008500	   -0.390000	   -0.060000	    0.160000	   24.769531
    9.6730	  0.005500	  0.025500	  1.007500	   -0.300000	   -0.190000	    0.280000	   24.789063
    9.6830	  0.004000	  0.025000	  1.006500	   -0.370000	   -0.160000	    0.250000	   24.765625
    9.6930	  0.005000	  0.025000	  1.007500	   -0.380000	   -0.150000	    0.160000	   24.777344
    9.7030	  0.005000	  0.026500	  1.007500	   -0.330000	   -0.220000	    0.270000	   24.796875
    9.7130	  0.004500	  0.025500	  1.007000	   -0.390000	   -0.170000	    0.330000	   24.796875
    9.7230	  0.004500	  0.025000	  1.007000	   -0.330000	   -0.110000	    0.290000	   24.769531
    9.7332	  0.005500	  0.026000	  1.007000	   -0.370000	   -0.120000	    0.270000	   24.789063
    9.7430	  0.005500	  0.025500	  1.006500	   -0.340000	   -0.090000	    0.240000	   24.792969
    9.7530	  0.005000	  0.025000	  1.007000	   -0.370000	   -0.180000	    0.290000	   24.785156
    9.7630	  0.005500	  0.024500	  1.008500	   -0.300000	   -0.050000	    0.250000	   24.800781
    9.7730	  0.005000	  0.026500	  1.005500	   -0.350000	   -0.110000	    0.150000	   24.812500
    9.7830	  0.006000	  0.025000	  1.007000	   -0.320000	   -0.220000	    0.210000	   24.808594
    9.7930	  0.004500	  0.025000	  1.007500	   -0.230000	   -0.100000	    0.200000	   24.781250
    9.8030	  0.005000	  0.024500	  1.006500	   -0.360000	   -0.070000	    0.320000	   24.773438
    9.8132	  0.005000	  0.025000	  1.009000	   -0.350000	   -0.060000	    0.250000	   24.777344
    9.8230	  0.006000	  0.025000	  1.008000	   -0.410000	   -0.150000	    0.190000	   24.777344
    9.8330	  0.006000	  0.024000	  1.007000	   -0.400000	   -0.030000	    0.180000	   24.765625
    9.8430	  0.004500	  0.024500	  1.008000	   -0.420000	   -0.160000	    0.210000	   24.777344
    9.8530	  0.005500	  0.026000	  1.008500	   -0.400000	   -0.260000	    0.390000	   24.800781
    9.8630	  0.005000	  0.025000	  1.006500	   -0.360000	   -0.150000	    0.220000	   24.800781
    9.8730	  0.006500	  0.025500	  1.008500	   -0.410000	   -0.190000	    0.290000	   24.804688
    9.8830	  0.005000	  0.025500	  1.006500	   -0.310000	   -0.240000	    0.270000	   24.808594
    9.8932	  0.005000	  0.025000	  1.007500	   -0.370000	   -0.070000	    0.310000	   24.812500
    9.9030	  0.005500	  0.026000	  1.006000	   -0.350000	   -0.220000	    0.140000	   24.785156
    9.9130	  0.004500	  0.026000	  1.006000	   -0.370000	   -0.120000	    0.180000	   24.773438
    9.9230	  0.004000	  0.025500	  1.006500	   -0.360000	    0.030000	    0.240000	   24.789063
    9.9330	  0.005500	  0.025500	  1.007000	   -0.340000	   -0.220000	    0.320000	   24.796875
    9.9430	  0.005000	  0.025500	  1.007000	   -0.410000	   -0.220000	    0.240000	   24.800781
    9.9530	  0.005000	  0.025000	  1.006500	   -0.320000	   -0.090000	    0.170000	   24.777344
    9.9630	  0.005500	  0.025000	  1.008500	   -0.390000	   -0.190000	    0.190000	   24.781250
    9.9732	  0.005500	  0.023500	  1.008000	   -0.350000	   -0.050000	    0.200000	   24.785156
    9.9830	  0.005500	  0.025000	  1.006000	   -0.390000	   -0.050000	    0.120000	   24.757813
    9.9930	  0.005000	  0.025000	  1.007500	   -0.410000	   -0.240000	    0.290000	   24.773438
   10.0030	  0.004500	  0.025000	  1.007000	   -0.450000	   -0.170000	    0.220000	   24.796875
   10.0130	  0.005500	  0.026000	  1.007000	   -0.380000	   -0.080000	    0.290000	   24.792969
   10.0230	  0.005000	  0.025000	  1.008000	   -0.390000	   -0.100000	    0.260000	   24.804688
   10.0330	  0.005500	  0.024500	  1.008000	   -0.310000	   -0.130000	    0.320000	   24.792969
   10.0430	  0.006000	  0.025000	  1.007000	   -0.350000	   -0.180000	    0.270000	   24.792969
   10.0532	  0.005000	  0.025000	  1.009000	   -0.380000	   -0.230000	    0.270000	   24.769531
   10.0630	  0.005500	  0.025500	  1.007000	   -0.350000	   -0.050000	    0.290000	   24.785156
   10.0730	  0.005000	  0.025000	  1.007500	   -0.410000	   -0.090000	    0.240000	   24.781250
   10.0830	  0.005000	  0.025000	  1.008000	   -0.350000	   -0.130000	    0.270000	   24.792969
   10.0930	  0.005000	  0.024500	  1.007000	   -0.170000	   -0.020000	    0.160000	   24.808594
   10.1030	  0.005000	  0.025500	  1.008500	   -0.460000	   -0.070000	    0.220000	   24.777344
   10.1130	  0.005000	  0.025000	  1.007500	   -0.400000	   -0.090000	    0.230000	   24.781250
   10.1230	  0.004500	  0.025500	  1.005500	   -0.390000	   -0.190000	    0.340000	   24.785156
   10.1332	  0.004500	  0.025500	  1.005500	   -0.350000	   -0.070000	    0.350000	   24.789063
   10.1430	  0.004000	  0.025500	  1.007500	   -0.370000	   -0.170000	    0.240000	   24.777344
   10.1530	  0.004500	  0.026000	  1.006500	   -0.460000	   -0.230000	    0.270000	   24.785156
   10.1630	  0.004500	  0.024500	  1.007500	   -0.450000	   -0.060000	    0.250000	   24.785156
   10.1730	  0.005000	  0.026000	  1.006000	   -0.370000	   -0.050000	    0.280000	   24.796875
   10.1830	  0.005000	  0.024000	  1.008500	   -0.410000	   -0.060000	    0.220000	   24.781250
   10.1930	  0.005000	  0.026000	  1.007500	   -0.310000	   -0.090000	    0.200000	   24.769531
   10.2030	  0.005500	  0.025000	  1.007000	   -0.450000	   -0.320000	    0.260000	   24.781250
   10.2132	  0.005000	  0.025000	  1.008000	   -0.330000	   -0.150000	    0.180000	   24.773438
   10.2230	  0.004500	  0.024500	  1.006500	   -0.470000	   -0.130000	    0.310000	   24.769531
   10.2330	  0.005000	  0.024500	  1.007500	   -0.410000	   -0.170000	    0.330000	   24.773438
   10.2430	  0.004000	  0.025000	  1.007000	   -0.330000	   -0.080000	    0.090000	   24.781250
   10.2530	  0.004000	  0.026500	  1.007000	   -0.430000	   -0.150000	    0.300000	   24.808594
   10.2630	  0.004500	  0.025500	  1.008500	   -0.420000	   -0.150000	    0.140000	   24.808594
   10.2730	  0.005500	  0.024500	  1.007500	   -0.370000	   -0.140000	    0.250000	   24.773438
   10.2830	  0.005000	  0.025000	  1.006000	   -0.350000	   -0.190000	    0.160000	   24.789063
   10.2932	  0.005000	  0.025500	  1.007000	   -0.290000	   -0.110000	    0.290000	   24.789063
   10.3030	  0.004500	  0.024500	  1.007000	   -0.410000	   -0.160000	    0.200000	   24.769531
   10.3130	  0.005000	  0.025000	  1.007000	   -0.300000	   -0.150000	    0.150000	   24.781250
   10.3230	  0.004000	  0.025500	  1.007500	   -0.510000	   -0.140000	    0.220000	   24.792969
   10.3330	  0.004000	  0.025000	  1.007500	   -0.440000	   -0.240000	    0.140000	   24.785156
   10.3430	  0.005500	  0.024500	  1.007000	   -0.300000	   -0.140000	    0.180000	   24.785156
   10.3530	  0.004500	  0.024000	  1.008000	   -0.450000	   -0.150000	    0.240000	   24.785156
   10.3630	  0.004500	  0.025500	  1.007000	   -0.470000	   -0.040000	    0.110000	   24.785156
   10.3736	  0.006000	  0.025000	  1.007000	   -0.370000	   -0.140000	    0.350000	   24.777344
   10.3830	  0.005000	  0.025500	  1.007000	   -0.420000	   -0.100000	    0.240000	   24.785156
   10.3930	  0.005500	  0.025000	  1.007500	   -0.440000	   -0.090000	    0.240000	   24.792969
   10.4030	  0.005500	  0.025000	  1.007000	   -0.310000	   -0.140000	    0.280000	   24.785156
   10.4130	  0.005000	  0.025500	  1.007500	   -0.420000	   -0.190000	    0.270000	   24.785156
   10.4230	  0.005000	  0.024500	  1.007500	   -0.370000	   -0.090000	    0.180000	   24.792969
   10.4330	  0.003500	  0.026000	  1.007500	   -0.210000	   -0.050000	    0.270000	   24.812500
   10.4430	  0.005500	  0.024500	  1.008000	   -0.370000	   -0.160000	    0.200000	   24.789063
   10.4532	  0.005000	  0.024500	  1.006500	   -0.420000	   -0.240000	    0.150000	   24.769531
   10.4630	  0.005000	  0.026000	  1.006500	   -0.360000	   -0.100000	    0.200000	   24.761719
   10.4730	  0.006500	  0.025000	  1.007500	   -0.420000	   -0.170000	    0.300000	   24.781250
   10.4830	  0.005000	  0.025000	  1.007500	   -0.340000	   -0.170000	    0.270000	   24.789063
   10.4930	  0.005000	  0.025500	  1.007500	   -0.360000	   -0.230000	    0.250000	   24.785156
   10.5030	  0.004500	  0.025500	  1.007000	   -0.240000	   -0.060000	    0.150000	   24.792969
   10.5130	  0.005000	  0.026000	  1.007500	   -0.420000	   -0.050000	    0.140000	   24.789063
   10.5230	  0.004500	  0.024000	  1.006000	   -0.430000	   -0.120000	    0.230000	   24.777344
   10.5332	  0.005000	  0.025500	  1.007500	   -0.270000	   -0.140000	    0.310000	   24.773438
   10.5430	  0.004000	  0.024500	  1.007500	   -0.490000	   -0.200000	    0.340000	   24.757813
   10.5530	  0.005500	  0.024500	  1.006500	   -0.440000	   -0.080000	    0.280000	   24.769531
   10.5630	  0.005500	  0.025000	  1.006500	   -0.500000	   -0.240000	    0.390000	   24.765625
   10.5730	  0.005000	  0.024500	  1.008500	   -0.450000	   -0.180000	    0.190000	   24.773438
   10.5830	  0.005500	  0.025500	  1.007500	   -0.260000	   -0.090000	    0.230000	   24.785156
   10.5930	  0.005500	  0.025000	  1.007500	   -0.320000	   -0.160000	    0.250000	   24.804688
   10.6030	  0.005000	  0.024500	  1.008000	   -0.270000	   -0.070000	    0.270000	   24.796875
   10.6133	  0.005500	  0.025500	  1.006500	   -0.420000	   -0.220000	    0.270000	   24.800781
   10.6230	  0.005000	  0.025500	  1.007000	   -0.350000	   -0.120000	    0.250000	   24.750000
   10.6330	  0.006000	  0.025000	  1.007000	   -0.340000	   -0.120000	    0.200000	   24.750000
   10.6431	  0.006000	  0.026000	  1.005500	   -0.590000	   -0.170000	    0.210000	   24.761719
   10.6530	  0.004500	  0.025000	  1.006000	   -0.400000	   -0.150000	    0.250000	   24.781250
   10.6630	  0.004500	  0.025000	  1.007000	   -0.380000	   -0.170000	    0.200000	   24.781250
   10.6730	  0.005000	  0.024500	  1.006500	   -0.370000	   -0.130000	    0.210000	   24.781250
   10.6830	  0.004000	  0.025500	  1.008000	   -0.320000	   -0.090000	    0.140000	   24.777344
   10.6932	  0.005500	  0.025500	  1.008000	   -0.370000	   -0.070000	    0.240000	   24.792969
   10.7030	  0.005500	  0.025500	  1.007000	   -0.310000	    0.050000	    0.220000	   24.796875
   10.7131	  0.005500	  0.024000	  1.008000	   -0.290000	   -0.130000	    0.140000	   24.800781
   10.7230	  0.005500	  0.024500	  1.006000	   -0.370000	   -0.090000	    0.290000	   24.796875
   10.7330	  0.004000	  0.025500	  1.008000	   -0.330000	   -0.170000	    0.240000	   24.800781
   10.7430	  0.005500	  0.025500	  1.007000	   -0.300000	   -0.140000	    0.200000	   24.812500
   10.7530	  0.006000	  0.025000	  1.007000	   -0.450000	   -0.130000	    0.210000	   24.792969
   10.7630	  0.004500	  0.026000	  1.007500	   -0.330000	   -0.080000	    0.320000	   24.785156
   10.7732	  0.004500	  0.026000	  1.007500	   -0.360000	   -0.190000	    0.350000	   24.785156
   10.7830	  0.005500	  0.025000	  1.008000	   -0.420000	   -0.210000	    0.240000	   24.789063
   10.7930	  0.005500	  0.025000	  1.006500	   -0.460000	   -0.160000	    0.320000	   24.800781
   10.8030	  0.005000	  0.025000	  1.007500	   -0.390000	   -0.260000	    0.310000	   24.781250
   10.8131	  0.004500	  0.025500	  1.006500	   -0.340000	   -0.140000	    0.220000	   24.785156
   10.8230	  0.005000	  0.025000	  1.006500	   -0.430000	   -0.150000	    0.280000	   24.800781
   10.8330	  0.005000	  0.025500	  1.006000	   -0.270000	   -0.190000	    0.300000	   24.792969
   10.8430	  0.005000	  0.025000	  1.007500	   -0.290000	   -0.290000	    0.250000	   24.777344
   10.8532	  0.005000	  0.024500	  1.007000	   -0.300000	   -0.050000	    0.200000	   24.785156
   10.8630	  0.004500	  0.025500	  1.007000	   -0.400000	   -0.140000	    0.360000	   24.765625
   10.8730	  0.005000	  0.026000	  1.006500	   -0.410000	   -0.150000	    0.190000	   24.785156
   10.8830	  0.004500	  0.026000	  1.007500	   -0.440000	   -0.100000	    0.190000	   24.792969
   10.8930	  0.005000	  0.025000	  1.007500	   -0.490000	   -0.170000	    0.220000	   24.769531
   10.9030	  0.006000	  0.025000	  1.006500	   -0.430000	   -0.120000	    0.240000	   24.785156
   10.9131	  0.005000	  0.026000	  1.009500	   -0.330000	   -0.150000	    0.190000	   24.835938
   10.9230	  0.005000	  0.025500	  1.007500	   -0.280000	   -0.170000	    0.260000	   24.808594
   10.9332	  0.006000	  0.025000	  1.007500	   -0.390000	   -0.120000	    0.210000	   24.796875
   10.9430	  0.005000	  0.024500	  1.007000	   -0.450000	   -0.020000	    0.180000	   24.792969
   10.9530	  0.005500	  0.026000	  1.007500	   -0.470000	   -0.180000	    0.290000	   24.781250
   10.9630	  0.005000	  0.025000	  1.008000	   -0.390000	   -0.170000	    0.200000	   24.812500
   10.9730	  0.004500	  0.025500	  1.007500	   -0.300000	   -0.040000	    0.210000	   24.792969
   10.9830	  0.004500	  0.026000	  1.007000	   -0.300000	   -0.040000	    0.300000	   24.785156
   10.9930	  0.005500	  0.024500	  1.007000	   -0.250000	   -0.150000	    0.230000	   24.792969
   11.0030	  0.005000	  0.024500	  1.007500	   -0.260000	   -0.010000	    0.090000	   24.781250
   11.0133	  0.004000	  0.025500	  1.007500	   -0.340000	   -0.220000	    0.230000	   24.792969
   11.0230	  0.005000	  0.025500	  1.006000	   -0.360000	   -0.150000	    0.350000	   24.777344
   11.0330	  0.004500	  0.025500	  1.006500	   -0.480000	   -0.250000	    0.220000	   24.773438
   11.0431	  0.006000	  0.024000	  1.007000	   -0.370000	   -0.060000	    0.270000	   24.773438
   11.0530	  0.005500	  0.024000	  1.007000	   -0.370000	   -0.100000	    0.140000	   24.792969
   11.0631	  0.005000	  0.025000	  1.008000	   -0.340000	   -0.160000	    0.300000	   24.781250
   11.0730	  0.005000	  0.025000	  1.008000	   -0.310000	   -0.150000	    0.310000	   24.777344
   11.0831	  0.005000	  0.025000	  1.006000	   -0.350000	   -0.150000	    0.220000	   24.777344
   11.0933	  0.006500	  0.024500	  1.006500	   -0.410000	   -0.220000	    0.320000	   24.781250
   11.1031	  0.004500	  0.024000	  1.007000	   -0.370000	   -0.150000	    0.140000	   24.796875
   11.1131	  0.005500	  0.024500	  1.006500	   -0.450000	   -0.250000	    0.270000	   24.765625
   11.1231	  0.006000	  0.025000	  1.006500	   -0.270000	   -0.270000	    0.240000	   24.753906
   11.1330	  0.004500	  0.026500	  1.006500	   -0.260000	   -0.030000	    0.180000	   24.785156
   11.1431	  0.004500	  0.024000	  1.006000	   -0.360000	   -0.180000	    0.250000	   24.792969
   11.1530	  0.005500	  0.025500	  1.008000	   -0.390000	   -0.170000	    0.240000	   24.800781
   11.1631	  0.005000	  0.025000	  1.006500	   -0.460000	   -0.110000	    0.200000	   24.800781
   11.1733	  0.004500	  0.025000	  1.007500	   -0.300000	   -0.210000	    0.210000	   24.765625
   11.1830	  0.004500	  0.026000	  1.008500	   -0.470000	   -0.120000	    0.290000	   24.800781
   11.1931	  0.006500	  0.024500	  1.006500	   -0.300000	   -0.120000	    0.330000	   24.800781
   11.2030	  0.005000	  0.025000	  1.007500	   -0.310000	   -0.090000	    0.260000	   24.773438
   11.2131	  0.006000	  0.025500	  1.007500	   -0.300000	   -0.110000	    0.350000	   24.773438
   11.2230	  0.005500	  0.025500	  1.006500	   -0.340000	   -0.120000	    0.210000	   24.800781
   11.2331	  0.005000	  0.025500	  1.008500	   -0.320000	   -0.050000	    0.140000	   24.796875
   11.2430	  0.006000	  0.025000	  1.007000	   -0.330000	   -0.100000	    0.230000	   24.800781
   11.2533	  0.005000	  0.025500	  1.007000	   -0.310000	   -0.090000	    0.310000	   24.800781
   11.2630	  0.004500	  0.027000	  1.008000	   -0.400000	   -0.040000	    0.320000	   24.804688
   11.2731	  0.004500	  0.025500	  1.007500	   -0.440000	   -0.040000	    0.260000	   24.804688
   11.2831	  0.005500	  0.025000	  1.007000	   -0.380000	   -0.220000	    0.210000	   24.792969
   11.2931	  0.005500	  0.025500	  1.008000	   -0.290000	   -0.130000	    0.350000	   24.769531
   11.3031	  0.005000	  0.024000	  1.007500	   -0.470000	   -0.240000	    0.320000	   24.781250
   11.3131	  0.005000	  0.026000	  1.007500	   -0.320000	    0.020000	    0.230000	   24.808594
   11.3231	  0.005000	  0.026500	  1.006500	   -0.420000	   -0.260000	    0.400000	   24.812500
   11.3333	  0.005000	  0.026000	  1.007500	   -0.450000	   -0.170000	    0.390000	   24.789063
   11.3431	  0.005000	  0.026500	  1.006500	   -0.360000	   -0.080000	    0.200000	   24.761719
   11.3531	  0.005500	  0.025500	  1.007000	   -0.290000	   -0.220000	    0.330000	   24.781250
   11.3631	  0.005000	  0.025000	  1.007500	   -0.480000	   -0.190000	    0.320000	   24.773438
   11.3734	  0.006000	  0.026000	  1.007000	   -0.270000	   -0.200000	    0.200000	   24.761719
   11.3831	  0.005500	  0.025000	  1.008500	   -0.350000	   -0.140000	    0.220000	   24.773438
   11.3931	  0.005000	  0.025500	  1.007000	   -0.210000	   -0.080000	    0.270000	   24.757813
   11.4031	  0.005000	  0.025500	  1.007000	   -0.450000	   -0.300000	    0.290000	   24.765625
   11.4133	  0.004500	  0.024500	  1.007000	   -0.410000	   -0.220000	    0.190000	   24.789063
   11.4231	  0.005000	  0.024500	  1.006500	   -0.310000	   -0.080000	    0.290000	   24.781250
   11.4331	  0.005500	  0.024000	  1.007500	   -0.380000	   -0.080000	    0.320000	   24.781250
   11.4431	  0.005500	  0.024000	  1.006500	   -0.340000	   -0.150000	    0.160000	   24.781250
   11.4531	  0.006500	  0.024500	  1.007000	   -0.360000	   -0.080000	    0.170000	   24.785156
   11.4631	  0.005500	  0.025500	  1.006500	   -0.400000	   -0.120000	    0.140000	   24.800781
   11.4731	  0.005500	  0.023000	  1.005000	   -0.320000	   -0.040000	    0.270000	   24.820313
   11.4831	  0.003000	  0.024500	  1.008000	   -0.460000	   -0.170000	    0.250000	   24.800781
   11.4933	  0.001500	  0.025000	  1.007000	   -0.380000	   -0.230000	    0.340000	   24.792969
   11.5031	  0.003000	  0.024500	  1.006000	   -0.480000	   -0.260000	    0.320000	   24.796875
   11.5131	  0.002500	  0.025000	  1.009000	   -0.400000	   -0.070000	    0.280000	   24.800781
   11.5231	  0.002000	  0.025000	  1.007000	   -0.420000	   -0.240000	    0.310000	   24.761719
   11.5331	  0.004000	  0.025500	  1.006500	   -0.390000	   -0.260000	    0.230000	   24.781250
   11.5431	  0.003000	  0.026000	  1.006500	   -0.390000	   -0.250000	    0.280000	   24.777344
   11.5531	  0.004000	  0.026000	  1.006500	   -0.240000	   -0.210000	    0.310000	   24.773438
   11.5631	  0.006000	  0.026000	  1.007500	   -0.430000	   -0.160000	    0.380000	   24.789063
   11.5733	  0.007000	  0.025000	  1.006500	   -0.400000	   -0.130000	    0.200000	   24.789063
   11.5831	  0.008000	  0.026500	  1.006500	   -0.560000	   -0.250000	    0.240000	   24.773438
   11.5932	  0.008500	  0.024500	  1.006000	   -0.310000	   -0.180000	    0.260000	   24.773438
   11.6031	  0.006000	  0.026000	  1.005000	   -0.450000	   -0.210000	    0.150000	   24.753906
   11.6131	  0.006000	  0.025000	  1.006000	   -0.470000	   -0.250000	    0.190000	   24.753906
   11.6231	  0.006000	  0.026000	  1.007000	   -0.400000	   -0.190000	    0.270000	   24.781250
   11.6331	  0.005500	  0.024500	  1.009000	   -0.280000	   -0.130000	    0.180000	   24.773438
   11.6431	  0.003500	  0.024500	  1.008500	   -0.220000	   -0.070000	    0.220000	   24.769531
   11.6533	  0.005000	  0.024500	  1.007500	   -0.370000	   -0.110000	    0.150000	   24.761719
   11.6631	  0.004000	  0.024000	  1.009000	   -0.310000	   -0.070000	    0.190000	   24.777344
   11.6731	  0.004000	  0.023500	  1.006500	   -0.350000	   -0.060000	    0.200000	   24.800781
   11.6831	  0.004000	  0.025000	  1.005500	   -0.410000	   -0.110000	    0.200000	   24.796875
   11.6931	  0.004000	  0.024500	  1.007000	   -0.450000	    0.000000	    0.330000	   24.781250
   11.7031	  0.004000	  0.025500	  1.007500	   -0.360000	   -0.140000	    0.350000	   24.777344
   11.7131	  0.005000	  0.025500	  1.006000	   -0.340000	   -0.150000	    0.270000	   24.789063
   11.7231	  0.004500	  0.025500	  1.007500	   -0.340000	   -0.080000	    0.250000	   24.761719
   11.7333	  0.004500	  0.025000	  1.006500	   -0.370000	   -0.220000	    0.210000	   24.777344
   11.7431	  0.005500	  0.025500	  1.007500	   -0.430000	   -0.110000	    0.320000	   24.816406
   11.7531	  0.004500	  0.024000	  1.006000	   -0.510000	   -0.180000	    0.330000	   24.796875
   11.7631	  0.004500	  0.025000	  1.008000	   -0.470000	   -0.100000	    0.200000	   24.792969
   11.7731	  0.005500	  0.025500	  1.006000	   -0.320000	   -0.190000	    0.250000	   24.796875
   11.7831	  0.006000	  0.026000	  1.006500	   -0.340000	   -0.090000	    0.270000	   24.800781
   11.7931	  0.005500	  0.026000	  1.007000	   -0.420000	   -0.120000	    0.310000	   24.777344
   11.8031	  0.006500	  0.026000	  1.006500	   -0.440000	   -0.290000	    0.300000	   24.785156
   11.8133	  0.006000	  0.024500	  1.008000	   -0.390000	   -0.320000	    0.290000	   24.777344
   11.8231	  0.005000	  0.024500	  1.007500	   -0.420000	   -0.170000	    0.210000	   24.773438
   11.8331	  0.006000	  0.023500	  1.008000	   -0.350000	   -0.200000	    0.230000	   24.777344
   11.8431	  0.005000	  0.025000	  1.008500	   -0.410000	   -0.240000	    0.270000	   24.773438
   11.8531	  0.005000	  0.025500	  1.006500	   -0.370000	   -0.170000	    0.240000	   24.785156
   11.8631	  0.006500	  0.026500	  1.006000	   -0.360000	   -0.120000	    0.290000	   24.781250
   11.8731	  0.005500	  0.025500	  1.008500	   -0.390000	   -0.260000	    0.190000	   24.781250
   11.8831	  0.004500	  0.026000	  1.006000	   -0.350000	   -0.220000	    0.230000	   24.785156
   11.8933	  0.005000	  0.025500	  1.006500	   -0.320000	   -0.100000	    0.260000	   24.785156
   11.9031	  0.002500	  0.024500	  1.008000	   -0.350000	   -0.110000	    0.260000	   24.785156
   11.9131	  0.002000	  0.026500	  1.007500	   -0.300000	   -0.170000	    0.140000	   24.792969
   11.9231	  0.003000	  0.025000	  1.006500	   -0.420000	   -0.170000	    0.260000	   24.785156
   11.9331	  0.004000	  0.026000	  1.007500	   -0.380000	   -0.150000	    0.290000	   24.761719
   11.9431	  0.004500	  0.025000	  1.008000	   -0.330000	   -0.190000	    0.320000	   24.769531
   11.9531	  0.005000	  0.025000	  1.007500	   -0.420000	   -0.100000	    0.350000	   24.773438
   11.9631	  0.006000	  0.024500	  1.007500	   -0.380000	   -0.170000	    0.350000	   24.781250
   11.9733	  0.007000	  0.026000	  1.007000	   -0.380000	   -0.370000	    0.200000	   24.761719
   11.9831	  0.007500	  0.025000	  1.007000	   -0.490000	   -0.090000	    0.280000	   24.750000
   11.9931	  0.006000	  0.024500	  1.007000	   -0.490000	   -0.130000	    0.260000	   24.765625
   12.0031	  0.007000	  0.025000	  1.007000	   -0.330000	    0.000000	    0.310000	   24.792969
   12.0131	  0.006000	  0.025000	  1.007000	   -0.380000	   -0.260000	    0.320000	   24.785156
   12.0231	  0.005000	  0.024500	  1.009000	   -0.370000	   -0.070000	    0.240000	   24.789063
   12.0331	  0.003500	  0.025500	  1.008000	   -0.340000	   -0.140000	    0.230000	   24.785156
   12.0431	  0.005000	  0.025500	  1.008000	   -0.420000	   -0.060000	    0.220000	   24.789063
   12.0533	  0.005500	  0.024500	  1.007000	   -0.290000	   -0.140000	    0.230000	   24.765625
   12.0631	  0.004000	  0.024500	  1.008000	   -0.360000	   -0.140000	    0.230000	   24.773438
   12.0731	  0.005000	  0.024500	  1.007000	   -0.310000	   -0.090000	    0.210000	   24.792969
   12.0831	  0.005000	  0.025500	  1.005000	   -0.300000	   -0.270000	    0.290000	   24.800781
   12.0931	  0.004500	  0.024500	  1.008500	   -0.380000	   -0.130000	    0.260000	   24.812500
   12.1031	  0.004500	  0.024500	  1.004500	   -0.340000	   -0.140000	    0.270000	   24.796875
   12.1131	  0.003500	  0.025000	  1.006500	   -0.430000	   -0.090000	    0.210000	   24.789063
   12.1231	  0.002500	  0.025000	  1.004500	   -0.400000	   -0.120000	    0.210000	   24.785156
   12.1333	  0.002500	  0.024000	  1.008000	   -0.460000	   -0.190000	    0.320000	   24.800781
   12.1431	  0.003000	  0.026000	  1.008000	   -0.470000	   -0.070000	    0.280000	   24.792969
   12.1531	  0.005500	  0.026000	  1.007500	   -0.430000	   -0.290000	    0.350000	   24.785156
   12.1631	  0.004000	  0.025500	  1.007500	   -0.380000	   -0.050000	    0.250000	   24.800781
   12.1731	  0.008000	  0.025500	  1.005500	   -0.380000	   -0.040000	    0.260000	   24.781250
   12.1831	  0.009500	  0.026000	  1.006500	   -0.340000	   -0.100000	    0.160000	   24.773438
   12.1931	  0.007000	  0.025000	  1.006500	   -0.380000	   -0.100000	    0.140000	   24.773438
   12.2031	  0.007500	  0.025500	  1.006000	   -0.430000	   -0.070000	    0.190000	   24.781250
   12.2134	  0.007500	  0.024000	  1.006500	   -0.400000	   -0.330000	    0.220000	   24.781250
   12.2231	  0.005000	  0.025000	  1.009000	   -0.320000	   -0.150000	    0.230000	   24.781250
   12.2331	  0.004500	  0.025500	  1.009500	   -0.320000	   -0.100000	    0.290000	   24.789063
   12.2431	  0.005000	  0.026000	  1.010000	   -0.280000	   -0.090000	    0.320000	   24.804688
   12.2531	  0.004000	  0.024000	  1.008000	   -0.350000	   -0.080000	    0.270000	   24.796875
   12.2631	  0.004000	  0.024000	  1.008500	   -0.430000	   -0.230000	    0.290000	   24.769531
   12.2731	  0.005500	  0.024500	  1.007000	   -0.270000	   -0.040000	    0.250000	   24.789063
   12.2831	  0.005500	  0.026500	  1.006500	   -0.380000	   -0.080000	    0.310000	   24.789063
   12.2933	  0.004000	  0.026000	  1.008500	   -0.260000	    0.120000	    0.390000	   24.785156
   12.3031	  0.003500	  0.026500	  1.007500	   -0.400000	   -0.140000	    0.190000	   24.789063
   12.3131	  0.004000	  0.026000	  1.006000	   -0.260000	   -0.160000	    0.240000	   24.789063
   12.3231	  0.003500	  0.025000	  1.006000	   -0.320000	   -0.130000	    0.270000	   24.789063
   12.3331	  0.003500	  0.024000	  1.007000	   -0.490000	   -0.280000	    0.170000	   24.792969
   12.3431	  0.003500	  0.025500	  1.008500	   -0.350000	   -0.160000	    0.200000	   24.765625
   12.3531	  0.005000	  0.024500	  1.007500	   -0.360000	   -0.070000	    0.350000	   24.781250
   12.3635	  0.005000	  0.026000	  1.006000	   -0.290000	   -0.040000	    0.180000	   24.796875
   12.3733	  0.006000	  0.025500	  1.006000	   -0.420000	   -0.180000	    0.260000	   24.777344
   12.3831	  0.006500	  0.026000	  1.006500	   -0.310000	   -0.060000	    0.330000	   24.781250
   12.3931	  0.008000	  0.026000	  1.007500	   -0.350000	   -0.130000	    0.200000	   24.781250
   12.4031	  0.007000	  0.026500	  1.006500	   -0.440000	   -0.290000	    0.260000	   24.785156
   12.4132	  0.007000	  0.024500	  1.009000	   -0.350000	   -0.230000	    0.290000	   24.781250
   12.4231	  0.007000	  0.024000	  1.008000	   -0.430000	   -0.290000	    0.160000	   24.785156
   12.4331	  0.005500	  0.024500	  1.007500	   -0.380000	   -0.220000	    0.170000	   24.804688
   12.4431	  0.005500	  0.025000	  1.008500	   -0.440000	   -0.190000	    0.160000	   24.796875
   12.4533	  0.005000	  0.025000	  1.007500	   -0.360000	   -0.210000	    0.270000	   24.804688
   12.4631	  0.004500	  0.025500	  1.008500	   -0.320000	   -0.260000	    0.150000	   24.808594
   12.4731	  0.004000	  0.025000	  1.007500	   -0.290000	   -0.040000	    0.260000	   24.796875
   12.4831	  0.005000	  0.025500	  1.007000	   -0.400000	   -0.140000	    0.120000	   24.773438
   12.4931	  0.003000	  0.025000	  1.007500	   -0.330000	   -0.080000	    0.210000	   24.781250
   12.5031	  0.002500	  0.024500	  1.007000	   -0.430000	   -0.160000	    0.350000	   24.816406
