ï»¿Time_s    	AccX_g    	AccY_g    	AccZ_g    	GyroX_degs  	GyroY_degs  	GyroZ_degs  	IMU_Temperature
    0.1450	 -0.543000	 -0.752500	  0.403500	    0.000000	    0.340000	    0.060000	   24.546875
    0.1550	 -0.521500	 -0.743500	  0.395000	   -0.400000	   -0.410000	    0.140000	   24.570313
    0.1650	 -0.541000	 -0.753500	  0.394500	   -0.800000	   -0.380000	    0.230000	   24.554688
    0.1752	 -0.532000	 -0.738500	  0.403000	   -0.650000	   -0.200000	    0.420000	   24.539063
    0.1850	 -0.541500	 -0.755500	  0.409500	   -0.030000	    0.120000	    0.000000	   24.546875
    0.1950	 -0.517000	 -0.747500	  0.402500	   -0.290000	   -0.290000	   -0.270000	   24.531250
    0.2050	 -0.539000	 -0.753000	  0.402000	   -0.710000	   -0.370000	    0.400000	   24.531250
    0.2150	 -0.531000	 -0.739500	  0.408000	   -0.500000	   -0.210000	    0.650000	   24.558594
    0.2250	 -0.538500	 -0.754000	  0.408000	    0.150000	    0.330000	    0.010000	   24.542969
    0.2350	 -0.514000	 -0.747500	  0.395500	   -0.220000	   -0.100000	   -0.280000	   24.535156
    0.2450	 -0.537500	 -0.750500	  0.393500	   -0.750000	   -0.420000	    0.500000	   24.539063
    0.2552	 -0.531500	 -0.736500	  0.398500	   -0.520000	   -0.200000	    0.650000	   24.570313
    0.2650	 -0.540500	 -0.744500	  0.404500	    0.210000	    0.250000	    0.330000	   24.570313
    0.2750	 -0.521000	 -0.742500	  0.399000	   -0.120000	   -0.110000	    0.110000	   24.574219
    0.2850	 -0.540500	 -0.746500	  0.398000	   -0.630000	   -0.480000	    0.240000	   24.562500
    0.2950	 -0.534500	 -0.736500	  0.403500	   -0.540000	   -0.320000	    0.380000	   24.554688
    0.3050	 -0.540500	 -0.755000	  0.408000	   -0.230000	   -0.110000	    0.090000	   24.566406
    0.3150	 -0.520500	 -0.748500	  0.396500	   -0.230000	   -0.190000	    0.010000	   24.562500
    0.3250	 -0.540000	 -0.746000	  0.392000	   -0.450000	   -0.040000	    0.480000	   24.542969
    0.3352	 -0.535000	 -0.736500	  0.399500	   -0.350000	    0.050000	    0.600000	   24.570313
    0.3450	 -0.544000	 -0.747500	  0.404500	   -0.290000	   -0.140000	    0.330000	   24.570313
    0.3550	 -0.520500	 -0.741500	  0.398000	   -0.570000	   -0.250000	    0.010000	   24.582031
    0.3650	 -0.539500	 -0.748500	  0.398000	   -0.790000	   -0.450000	    0.240000	   24.570313
    0.3750	 -0.538000	 -0.740000	  0.405000	   -0.370000	   -0.070000	    0.350000	   24.554688
    0.3850	 -0.542500	 -0.758000	  0.408500	    0.160000	    0.220000	   -0.090000	   24.562500
    0.3950	 -0.518500	 -0.751000	  0.398000	   -0.450000	   -0.280000	   -0.290000	   24.562500
    0.4050	 -0.538500	 -0.757000	  0.397000	   -0.790000	   -0.440000	    0.430000	   24.542969
    0.4152	 -0.529500	 -0.738500	  0.402000	   -0.370000	   -0.100000	    0.450000	   24.550781
    0.4250	 -0.538000	 -0.753500	  0.406000	   -0.020000	    0.210000	    0.270000	   24.535156
    0.4350	 -0.514500	 -0.745000	  0.397500	   -0.220000	   -0.200000	   -0.010000	   24.550781
    0.4450	 -0.535500	 -0.745000	  0.397000	   -0.710000	   -0.370000	    0.460000	   24.566406
    0.4550	 -0.532000	 -0.737000	  0.405000	   -0.440000	   -0.200000	    0.580000	   24.562500
    0.4650	 -0.540000	 -0.752000	  0.409000	   -0.180000	   -0.030000	    0.210000	   24.562500
    0.4754	 -0.522500	 -0.749000	  0.399000	   -0.230000	   -0.470000	   -0.110000	   24.535156
    0.4850	 -0.542000	 -0.752000	  0.393000	   -0.400000	   -0.190000	    0.520000	   24.531250
    0.4952	 -0.535000	 -0.735500	  0.399000	   -0.230000	    0.010000	    0.640000	   24.535156
    0.5050	 -0.544500	 -0.746500	  0.405000	   -0.010000	    0.300000	    0.230000	   24.546875
    0.5150	 -0.519000	 -0.743000	  0.396000	   -0.210000	   -0.410000	   -0.090000	   24.542969
    0.5250	 -0.535000	 -0.747500	  0.395000	   -1.000000	   -0.590000	    0.450000	   24.562500
    0.5350	 -0.530500	 -0.737000	  0.403000	   -0.510000	   -0.130000	    0.300000	   24.566406
    0.5450	 -0.536000	 -0.749500	  0.409500	   -0.110000	    0.340000	    0.000000	   24.566406
    0.5550	 -0.521500	 -0.749500	  0.400000	   -0.290000	   -0.230000	   -0.020000	   24.578125
    0.5650	 -0.541500	 -0.754000	  0.395000	   -0.740000	   -0.310000	    0.520000	   24.578125
    0.5752	 -0.537500	 -0.737500	  0.402500	   -0.320000	   -0.210000	    0.430000	   24.550781
    0.5850	 -0.544500	 -0.752000	  0.407000	   -0.020000	    0.160000	    0.220000	   24.546875
    0.5950	 -0.523500	 -0.747000	  0.399000	   -0.260000	   -0.380000	    0.110000	   24.546875
    0.6050	 -0.539000	 -0.745000	  0.394000	   -0.770000	   -0.280000	    0.460000	   24.578125
    0.6150	 -0.535500	 -0.739000	  0.399500	   -0.290000	    0.090000	    0.220000	   24.546875
    0.6250	 -0.537500	 -0.754500	  0.405000	   -0.180000	    0.060000	    0.180000	   24.554688
    0.6350	 -0.515500	 -0.746500	  0.398000	   -0.520000	   -0.390000	   -0.220000	   24.554688
    0.6450	 -0.534000	 -0.752000	  0.395500	   -0.780000	   -0.290000	    0.480000	   24.554688
    0.6552	 -0.529500	 -0.741000	  0.404000	   -0.230000	   -0.120000	    0.650000	   24.554688
    0.6650	 -0.538000	 -0.751500	  0.407500	    0.020000	    0.270000	    0.180000	   24.542969
    0.6750	 -0.520000	 -0.748500	  0.400500	   -0.230000	   -0.160000	   -0.170000	   24.570313
    0.6850	 -0.538000	 -0.748000	  0.396000	   -0.750000	   -0.510000	    0.600000	   24.570313
    0.6950	 -0.537500	 -0.735500	  0.400500	   -0.350000	   -0.110000	    0.710000	   24.554688
    0.7051	 -0.543500	 -0.748500	  0.404500	    0.230000	    0.300000	    0.260000	   24.562500
    0.7150	 -0.527000	 -0.747500	  0.391000	   -0.910000	   -0.620000	    0.370000	   24.554688
    0.7250	 -0.536500	 -0.748500	  0.392000	   -0.970000	   -0.700000	    0.410000	   24.554688
    0.7352	 -0.533000	 -0.738500	  0.400000	   -0.640000	   -0.340000	    0.510000	   24.566406
    0.7450	 -0.539000	 -0.748000	  0.408000	   -0.070000	    0.240000	    0.380000	   24.562500
    0.7550	 -0.522500	 -0.746500	  0.401500	   -0.040000	   -0.060000	    0.040000	   24.550781
    0.7650	 -0.540000	 -0.750000	  0.399500	   -0.560000	   -0.310000	    0.310000	   24.546875
    0.7750	 -0.536000	 -0.737000	  0.405500	   -0.540000	   -0.350000	    0.520000	   24.550781
    0.7850	 -0.541000	 -0.751000	  0.407500	   -0.140000	    0.020000	    0.130000	   24.550781
    0.7950	 -0.522000	 -0.750000	  0.398000	   -0.340000	   -0.210000	   -0.220000	   24.554688
    0.8050	 -0.543500	 -0.750500	  0.393500	   -0.520000	   -0.210000	    0.290000	   24.566406
    0.8152	 -0.534500	 -0.740000	  0.399000	   -0.430000	   -0.110000	    0.510000	   24.566406
    0.8250	 -0.540500	 -0.747000	  0.405500	   -0.210000	    0.200000	    0.430000	   24.570313
    0.8350	 -0.519500	 -0.743000	  0.400500	   -0.320000	   -0.300000	   -0.180000	   24.554688
    0.8450	 -0.536500	 -0.751500	  0.399000	   -0.670000	   -0.420000	    0.310000	   24.550781
    0.8550	 -0.534500	 -0.743500	  0.406000	   -0.460000	   -0.290000	    0.310000	   24.562500
    0.8650	 -0.537500	 -0.757000	  0.409500	   -0.040000	    0.010000	    0.040000	   24.558594
    0.8750	 -0.519000	 -0.749500	  0.399500	   -0.330000	   -0.330000	    0.090000	   24.582031
    0.8850	 -0.540000	 -0.751000	  0.394500	   -0.390000	   -0.090000	    0.570000	   24.570313
    0.8952	 -0.533500	 -0.737000	  0.399500	   -0.090000	    0.160000	    0.500000	   24.542969
    0.9050	 -0.540500	 -0.747500	  0.402500	   -0.090000	    0.090000	    0.390000	   24.535156
    0.9150	 -0.519000	 -0.739500	  0.397000	   -0.470000	   -0.510000	    0.000000	   24.562500
    0.9251	 -0.537000	 -0.742000	  0.395500	   -0.840000	   -0.210000	    0.300000	   24.531250
    0.9350	 -0.535000	 -0.739000	  0.404500	   -0.340000	   -0.010000	    0.350000	   24.539063
    0.9450	 -0.541500	 -0.755500	  0.408000	   -0.020000	    0.070000	    0.010000	   24.558594
    0.9550	 -0.520000	 -0.750500	  0.399000	   -0.470000	   -0.370000	   -0.140000	   24.546875
    0.9650	 -0.539000	 -0.754500	  0.394500	   -0.740000	   -0.560000	    0.320000	   24.542969
    0.9752	 -0.532000	 -0.737500	  0.400500	   -0.290000	    0.000000	    0.700000	   24.562500
    0.9850	 -0.544500	 -0.747000	  0.405500	    0.170000	    0.430000	    0.360000	   24.539063
    0.9950	 -0.520000	 -0.742000	  0.399000	   -0.120000	   -0.120000	    0.060000	   24.566406
    1.0050	 -0.538500	 -0.744500	  0.397000	   -0.800000	   -0.530000	    0.470000	   24.566406
    1.0150	 -0.535500	 -0.736000	  0.404000	   -0.720000	   -0.430000	    0.270000	   24.570313
    1.0251	 -0.539500	 -0.749000	  0.408500	   -0.100000	    0.030000	    0.080000	   24.542969
    1.0350	 -0.521000	 -0.750500	  0.401000	   -0.240000	   -0.180000	   -0.170000	   24.546875
    1.0450	 -0.540000	 -0.754000	  0.394500	   -0.500000	   -0.100000	    0.140000	   24.582031
    1.0552	 -0.534500	 -0.743500	  0.403500	   -0.490000	   -0.300000	    0.490000	   24.554688
    1.0650	 -0.540500	 -0.754500	  0.407000	   -0.330000	   -0.040000	    0.100000	   24.574219
    1.0750	 -0.516000	 -0.747500	  0.398500	   -0.440000	   -0.470000	   -0.020000	   24.570313
    1.0850	 -0.535000	 -0.747000	  0.396000	   -0.620000	   -0.240000	    0.300000	   24.570313
    1.0950	 -0.531000	 -0.739000	  0.402000	   -0.350000	    0.070000	    0.350000	   24.585938
    1.1050	 -0.538000	 -0.752000	  0.404500	   -0.110000	    0.110000	    0.180000	   24.589844
    1.1150	 -0.517000	 -0.741000	  0.396000	   -0.330000	   -0.350000	    0.170000	   24.570313
    1.1251	 -0.541000	 -0.751000	  0.395000	   -0.600000	   -0.300000	    0.310000	   24.562500
    1.1352	 -0.532000	 -0.739500	  0.402500	   -0.410000	   -0.020000	    0.370000	   24.542969
    1.1450	 -0.544500	 -0.751500	  0.407000	   -0.170000	    0.200000	    0.180000	   24.558594
    1.1550	 -0.520000	 -0.742000	  0.398500	   -0.380000	   -0.380000	    0.210000	   24.554688
    1.1650	 -0.542000	 -0.743000	  0.397500	   -0.510000	   -0.220000	    0.480000	   24.550781
    1.1750	 -0.536000	 -0.736000	  0.400500	   -0.120000	    0.200000	    0.280000	   24.554688
    1.1850	 -0.539500	 -0.757000	  0.404000	   -0.130000	   -0.010000	   -0.040000	   24.554688
    1.1950	 -0.514000	 -0.749000	  0.394500	   -0.800000	   -0.580000	   -0.250000	   24.574219
    1.2050	 -0.536000	 -0.750500	  0.394000	   -0.830000	   -0.420000	    0.430000	   24.554688
    1.2152	 -0.529500	 -0.742000	  0.403500	   -0.250000	    0.030000	    0.520000	   24.539063
    1.2251	 -0.542000	 -0.752000	  0.406500	    0.200000	    0.320000	    0.390000	   24.554688
    1.2350	 -0.520500	 -0.744000	  0.400000	   -0.210000	   -0.230000	    0.260000	   24.542969
    1.2450	 -0.543000	 -0.750500	  0.400000	   -0.840000	   -0.480000	    0.360000	   24.546875
    1.2550	 -0.534500	 -0.735500	  0.404000	   -0.570000	   -0.460000	    0.350000	   24.558594
    1.2650	 -0.542000	 -0.753000	  0.405000	   -0.010000	    0.130000	   -0.110000	   24.570313
    1.2750	 -0.519500	 -0.747000	  0.394000	   -0.240000	   -0.140000	   -0.100000	   24.570313
    1.2850	 -0.540000	 -0.746500	  0.392000	   -0.480000	   -0.060000	    0.540000	   24.570313
    1.2952	 -0.534000	 -0.737500	  0.402500	   -0.480000	   -0.020000	    0.650000	   24.554688
    1.3050	 -0.541000	 -0.750000	  0.406000	   -0.130000	    0.050000	    0.190000	   24.539063
    1.3150	 -0.520000	 -0.745500	  0.401000	   -0.430000	   -0.360000	   -0.030000	   24.535156
    1.3251	 -0.540000	 -0.752000	  0.399000	   -0.710000	   -0.410000	    0.290000	   24.550781
    1.3350	 -0.532000	 -0.741000	  0.406000	   -0.310000	   -0.010000	    0.250000	   24.535156
    1.3450	 -0.540000	 -0.759000	  0.407500	    0.030000	    0.250000	    0.110000	   24.550781
    1.3550	 -0.519000	 -0.743500	  0.396500	   -0.320000	   -0.390000	    0.240000	   24.558594
    1.3650	 -0.540500	 -0.746500	  0.393000	   -0.430000	   -0.030000	    0.370000	   24.582031
    1.3752	 -0.529000	 -0.737000	  0.401000	   -0.080000	    0.050000	    0.410000	   24.562500
    1.3850	 -0.539000	 -0.754000	  0.405000	   -0.260000	   -0.170000	    0.160000	   24.558594
    1.3950	 -0.516500	 -0.739000	  0.396500	   -0.660000	   -0.570000	    0.120000	   24.558594
    1.4050	 -0.539500	 -0.744500	  0.399000	   -0.510000	   -0.310000	    0.450000	   24.546875
    1.4150	 -0.533500	 -0.739000	  0.407000	   -0.260000	    0.000000	    0.530000	   24.554688
    1.4250	 -0.542000	 -0.758000	  0.409000	    0.080000	    0.070000	   -0.170000	   24.570313
    1.4350	 -0.520000	 -0.749500	  0.396000	   -0.670000	   -0.620000	    0.040000	   24.574219
    1.4450	 -0.542500	 -0.752500	  0.393500	   -0.850000	   -0.660000	    0.470000	   24.578125
    1.4552	 -0.533000	 -0.735000	  0.397500	   -0.060000	    0.310000	    0.630000	   24.566406
    1.4650	 -0.545000	 -0.751000	  0.403000	    0.380000	    0.650000	    0.150000	   24.562500
    1.4754	 -0.517500	 -0.741500	  0.395000	   -0.410000	   -0.290000	    0.170000	   24.558594
    1.4850	 -0.541000	 -0.745500	  0.398500	   -0.960000	   -0.610000	    0.340000	   24.570313
    1.4950	 -0.531500	 -0.736500	  0.405000	   -0.530000	   -0.230000	    0.270000	   24.570313
    1.5050	 -0.538500	 -0.757500	  0.407500	    0.070000	    0.240000	   -0.110000	   24.585938
    1.5150	 -0.522000	 -0.754500	  0.399000	   -0.380000	   -0.130000	   -0.090000	   24.582031
    1.5251	 -0.541000	 -0.754000	  0.395000	   -0.710000	   -0.210000	    0.380000	   24.566406
    1.5352	 -0.531000	 -0.737500	  0.403000	   -0.480000	   -0.060000	    0.640000	   24.554688
    1.5450	 -0.540500	 -0.751000	  0.406000	    0.090000	    0.180000	    0.080000	   24.566406
    1.5550	 -0.518000	 -0.742000	  0.398500	   -0.370000	   -0.190000	    0.180000	   24.558594
    1.5650	 -0.539000	 -0.745000	  0.397000	   -0.550000	   -0.130000	    0.300000	   24.558594
    1.5751	 -0.531500	 -0.738000	  0.402500	   -0.280000	    0.000000	    0.180000	   24.554688
    1.5851	 -0.538000	 -0.753500	  0.408000	   -0.250000	   -0.090000	    0.220000	   24.523438
    1.5950	 -0.521000	 -0.743500	  0.398000	   -0.590000	   -0.320000	    0.330000	   24.554688
    1.6050	 -0.545000	 -0.752500	  0.395500	   -0.400000	   -0.030000	    0.190000	   24.546875
    1.6153	 -0.531500	 -0.737500	  0.402000	   -0.280000	    0.240000	    0.460000	   24.554688
    1.6251	 -0.543500	 -0.755000	  0.409000	   -0.200000	    0.050000	    0.050000	   24.562500
    1.6350	 -0.518000	 -0.741500	  0.398500	   -0.730000	   -0.490000	    0.210000	   24.542969
    1.6451	 -0.543000	 -0.742000	  0.396000	   -0.480000	   -0.270000	    0.390000	   24.558594
    1.6550	 -0.533000	 -0.737500	  0.402000	   -0.060000	    0.300000	    0.280000	   24.585938
    1.6651	 -0.538000	 -0.757000	  0.403500	   -0.120000	    0.060000	    0.050000	   24.570313
    1.6752	 -0.515000	 -0.744500	  0.394500	   -0.840000	   -0.710000	   -0.080000	   24.562500
    1.6851	 -0.533500	 -0.741000	  0.402500	   -0.190000	    0.100000	    0.550000	   24.562500
    1.6953	 -0.529500	 -0.737500	  0.403500	   -0.020000	    0.260000	    0.620000	   24.562500
    1.7051	 -0.541500	 -0.755500	  0.407500	    0.380000	    0.410000	    0.060000	   24.558594
    1.7150	 -0.519000	 -0.746500	  0.398000	   -0.490000	   -0.330000	    0.190000	   24.570313
    1.7251	 -0.543000	 -0.747500	  0.399000	   -0.950000	   -0.600000	    0.520000	   24.562500
    1.7351	 -0.535000	 -0.733000	  0.402000	   -0.440000	   -0.190000	    0.530000	   24.574219
    1.7451	 -0.540000	 -0.753500	  0.402500	    0.150000	    0.290000	   -0.040000	   24.542969
    1.7551	 -0.519000	 -0.746500	  0.393000	   -0.180000	   -0.240000	   -0.140000	   24.542969
    1.7651	 -0.540000	 -0.747500	  0.392000	   -0.820000	   -0.500000	    0.470000	   24.554688
    1.7753	 -0.533000	 -0.736500	  0.402000	   -0.510000	   -0.310000	    0.600000	   24.542969
    1.7851	 -0.541000	 -0.751500	  0.407000	   -0.060000	    0.210000	    0.140000	   24.562500
    1.7951	 -0.524000	 -0.749500	  0.400000	   -0.200000	   -0.250000	    0.100000	   24.570313
    1.8051	 -0.545500	 -0.754500	  0.399500	   -0.480000	   -0.310000	    0.200000	   24.585938
    1.8151	 -0.531000	 -0.738500	  0.406000	   -0.430000	   -0.150000	    0.560000	   24.550781
    1.8251	 -0.542500	 -0.752500	  0.408500	   -0.070000	    0.110000	   -0.010000	   24.535156
    1.8351	 -0.517500	 -0.740500	  0.395500	   -0.350000	   -0.350000	    0.120000	   24.562500
    1.8451	 -0.542000	 -0.745500	  0.394500	   -0.440000	    0.040000	    0.330000	   24.570313
    1.8553	 -0.528500	 -0.736500	  0.401500	   -0.270000	    0.040000	    0.320000	   24.570313
    1.8651	 -0.537500	 -0.754000	  0.407500	   -0.450000	   -0.220000	    0.030000	   24.574219
    1.8751	 -0.516000	 -0.741500	  0.398500	   -0.800000	   -0.770000	    0.170000	   24.546875
    1.8851	 -0.541000	 -0.751000	  0.399500	   -0.470000	   -0.130000	    0.330000	   24.554688
    1.8951	 -0.531500	 -0.739000	  0.405000	   -0.070000	    0.150000	    0.460000	   24.558594
    1.9051	 -0.541000	 -0.758000	  0.407500	    0.090000	    0.170000	   -0.030000	   24.554688
    1.9151	 -0.518000	 -0.747500	  0.395500	   -0.810000	   -0.600000	    0.150000	   24.570313
    1.9251	 -0.541000	 -0.748000	  0.393500	   -0.760000	   -0.500000	    0.440000	   24.578125
    1.9353	 -0.531500	 -0.734500	  0.398500	   -0.060000	    0.240000	    0.490000	   24.562500
    1.9451	 -0.540000	 -0.754000	  0.402500	    0.210000	    0.310000	    0.060000	   24.570313
    1.9551	 -0.516000	 -0.741000	  0.394500	   -0.630000	   -0.560000	    0.110000	   24.566406
    1.9651	 -0.544000	 -0.746000	  0.399000	   -0.880000	   -0.630000	    0.340000	   24.558594
    1.9751	 -0.534500	 -0.736000	  0.405500	   -0.450000	   -0.250000	    0.490000	   24.566406
    1.9851	 -0.541500	 -0.755000	  0.406000	    0.180000	    0.350000	   -0.060000	   24.562500
    1.9951	 -0.522000	 -0.751000	  0.395500	   -0.360000	   -0.230000	   -0.070000	   24.550781
    2.0051	 -0.543000	 -0.751500	  0.395500	   -0.670000	   -0.320000	    0.500000	   24.542969
    2.0153	 -0.534000	 -0.737000	  0.400500	   -0.600000	   -0.260000	    0.480000	   24.554688
    2.0251	 -0.541000	 -0.752000	  0.403000	    0.020000	    0.270000	    0.060000	   24.570313
    2.0351	 -0.516500	 -0.742500	  0.396000	   -0.390000	   -0.210000	    0.030000	   24.546875
    2.0451	 -0.538500	 -0.745000	  0.397000	   -0.630000	   -0.390000	    0.350000	   24.582031
    2.0551	 -0.531500	 -0.738500	  0.403500	   -0.330000	   -0.070000	    0.150000	   24.601563
    2.0651	 -0.537500	 -0.754000	  0.409500	   -0.210000	   -0.040000	    0.110000	   24.593750
    2.0751	 -0.521500	 -0.748500	  0.400500	   -0.610000	   -0.410000	    0.240000	   24.566406
    2.0851	 -0.544500	 -0.754000	  0.397500	   -0.300000	   -0.090000	    0.320000	   24.574219
    2.0953	 -0.530000	 -0.737500	  0.404500	   -0.100000	    0.140000	    0.460000	   24.578125
    2.1051	 -0.545000	 -0.755500	  0.410000	   -0.110000	   -0.010000	    0.070000	   24.546875
    2.1151	 -0.518500	 -0.737500	  0.395500	   -0.710000	   -0.660000	    0.380000	   24.562500
    2.1251	 -0.543000	 -0.744000	  0.394500	   -0.370000	   -0.090000	    0.290000	   24.539063
    2.1351	 -0.532500	 -0.738500	  0.401500	   -0.110000	    0.230000	    0.380000	   24.562500
    2.1451	 -0.539500	 -0.755500	  0.404500	   -0.270000	    0.010000	   -0.060000	   24.574219
    2.1551	 -0.514500	 -0.745500	  0.396500	   -0.890000	   -0.740000	    0.080000	   24.554688
    2.1651	 -0.541000	 -0.752500	  0.398000	   -0.730000	   -0.420000	    0.390000	   24.566406
    2.1753	 -0.531000	 -0.740500	  0.404000	   -0.130000	    0.200000	    0.600000	   24.546875
    2.1851	 -0.542000	 -0.756500	  0.407500	    0.330000	    0.360000	   -0.020000	   24.542969
    2.1951	 -0.518500	 -0.743500	  0.396500	   -0.530000	   -0.410000	    0.210000	   24.570313
    2.2051	 -0.543000	 -0.745000	  0.399000	   -0.850000	   -0.630000	    0.490000	   24.558594
    2.2151	 -0.534500	 -0.733500	  0.403500	   -0.420000	   -0.080000	    0.540000	   24.539063
    2.2251	 -0.538500	 -0.753000	  0.403500	    0.180000	    0.290000	   -0.070000	   24.535156
    2.2351	 -0.518500	 -0.745000	  0.394000	   -0.360000	   -0.330000	   -0.070000	   24.550781
    2.2451	 -0.540500	 -0.745500	  0.394500	   -0.770000	   -0.440000	    0.610000	   24.554688
    2.2553	 -0.534000	 -0.737500	  0.403500	   -0.370000	   -0.080000	    0.460000	   24.550781
    2.2651	 -0.541000	 -0.757000	  0.406500	    0.030000	    0.030000	   -0.010000	   24.570313
    2.2751	 -0.522000	 -0.753000	  0.400000	   -0.510000	   -0.340000	   -0.010000	   24.546875
    2.2851	 -0.542000	 -0.753000	  0.398500	   -0.750000	   -0.210000	    0.430000	   24.558594
    2.2951	 -0.530500	 -0.738000	  0.405500	   -0.320000	   -0.030000	    0.430000	   24.562500
    2.3051	 -0.540500	 -0.752000	  0.406500	   -0.040000	    0.220000	    0.150000	   24.562500
    2.3151	 -0.517500	 -0.740000	  0.394000	   -0.430000	   -0.150000	    0.290000	   24.558594
    2.3251	 -0.541500	 -0.744000	  0.393500	   -0.450000	   -0.100000	    0.340000	   24.562500
    2.3353	 -0.530000	 -0.734500	  0.404000	   -0.350000	    0.050000	    0.180000	   24.570313
    2.3451	 -0.538000	 -0.753000	  0.407500	   -0.410000	   -0.130000	    0.020000	   24.531250
    2.3551	 -0.520500	 -0.744500	  0.400500	   -0.780000	   -0.600000	    0.320000	   24.554688
    2.3651	 -0.545500	 -0.752500	  0.398000	   -0.410000	   -0.110000	    0.400000	   24.550781
    2.3751	 -0.531000	 -0.737500	  0.404500	    0.110000	    0.340000	    0.490000	   24.558594
    2.3851	 -0.543000	 -0.758000	  0.407500	    0.030000	    0.210000	    0.050000	   24.562500
    2.3951	 -0.518000	 -0.744500	  0.395500	   -0.900000	   -0.710000	    0.170000	   24.562500
    2.4051	 -0.542500	 -0.747000	  0.393500	   -0.770000	   -0.320000	    0.530000	   24.546875
    2.4153	 -0.529500	 -0.737000	  0.399000	   -0.040000	    0.170000	    0.330000	   24.570313
    2.4251	 -0.537500	 -0.754000	  0.404500	    0.100000	    0.070000	   -0.030000	   24.574219
    2.4351	 -0.515500	 -0.741500	  0.396500	   -0.650000	   -0.580000	    0.220000	   24.546875
    2.4451	 -0.541000	 -0.747500	  0.400000	   -0.780000	   -0.700000	    0.560000	   24.562500
    2.4551	 -0.534000	 -0.738500	  0.406000	   -0.300000	    0.000000	    0.560000	   24.566406
    2.4651	 -0.541000	 -0.757000	  0.407000	    0.410000	    0.380000	   -0.240000	   24.546875
    2.4755	 -0.522500	 -0.751000	  0.396500	   -0.440000	   -0.420000	    0.100000	   24.546875
    2.4851	 -0.542500	 -0.747500	  0.395500	   -0.770000	   -0.340000	    0.600000	   24.550781
    2.4953	 -0.534000	 -0.734000	  0.400000	   -0.320000	    0.110000	    0.660000	   24.554688
    2.5051	 -0.541500	 -0.752500	  0.402000	    0.180000	    0.370000	    0.060000	   24.550781
    2.5151	 -0.518500	 -0.745000	  0.396000	   -0.310000	   -0.350000	    0.020000	   24.570313
    2.5251	 -0.539500	 -0.748000	  0.396500	   -1.030000	   -0.500000	    0.430000	   24.574219
    2.5351	 -0.532000	 -0.738000	  0.405500	   -0.530000	   -0.230000	    0.350000	   24.566406
    2.5451	 -0.538500	 -0.755500	  0.408500	   -0.020000	    0.250000	    0.020000	   24.570313
    2.5551	 -0.520500	 -0.750000	  0.398500	   -0.200000	   -0.170000	    0.080000	   24.585938
    2.5651	 -0.544500	 -0.753000	  0.397000	   -0.490000	   -0.190000	    0.450000	   24.578125
    2.5753	 -0.528500	 -0.736500	  0.404500	   -0.300000	   -0.010000	    0.510000	   24.562500
    2.5851	 -0.540500	 -0.754000	  0.408000	   -0.230000	    0.020000	    0.100000	   24.558594
    2.5951	 -0.518000	 -0.741000	  0.397000	   -0.600000	   -0.430000	    0.240000	   24.558594
    2.6051	 -0.542500	 -0.742500	  0.394500	   -0.310000	   -0.070000	    0.470000	   24.558594
    2.6151	 -0.533000	 -0.736500	  0.402000	   -0.020000	    0.280000	    0.450000	   24.566406
    2.6251	 -0.540000	 -0.752500	  0.407000	   -0.020000	   -0.120000	   -0.130000	   24.574219
    2.6351	 -0.518000	 -0.746500	  0.398500	   -0.760000	   -0.750000	    0.000000	   24.542969
    2.6451	 -0.543000	 -0.754000	  0.395500	   -0.780000	   -0.440000	    0.430000	   24.539063
    2.6553	 -0.532000	 -0.738500	  0.402000	    0.150000	    0.100000	    0.450000	   24.554688
    2.6651	 -0.541500	 -0.756500	  0.407000	    0.460000	    0.420000	    0.030000	   24.570313
    2.6752	 -0.520500	 -0.744500	  0.398500	   -0.600000	   -0.490000	    0.200000	   24.546875
    2.6851	 -0.538000	 -0.737000	  0.400500	   -0.520000	   -0.240000	    0.260000	   24.539063
    2.6951	 -0.532500	 -0.734500	  0.402000	   -0.310000	   -0.030000	    0.300000	   24.554688
    2.7051	 -0.535000	 -0.752000	  0.404500	    0.070000	    0.400000	   -0.060000	   24.535156
    2.7151	 -0.517500	 -0.747500	  0.396500	   -0.540000	   -0.280000	   -0.130000	   24.546875
    2.7252	 -0.539000	 -0.748000	  0.396000	   -0.790000	   -0.490000	    0.490000	   24.574219
    2.7353	 -0.532500	 -0.740000	  0.404500	   -0.470000	   -0.050000	    0.500000	   24.566406
    2.7451	 -0.540000	 -0.753500	  0.407500	    0.010000	    0.130000	    0.100000	   24.550781
    2.7551	 -0.521000	 -0.748500	  0.399500	   -0.310000	   -0.310000	    0.010000	   24.574219
    2.7651	 -0.541500	 -0.750500	  0.398000	   -0.660000	   -0.350000	    0.490000	   24.566406
    2.7751	 -0.535000	 -0.735500	  0.402500	   -0.400000	   -0.020000	    0.480000	   24.558594
    2.7851	 -0.540500	 -0.749500	  0.405500	    0.090000	    0.210000	    0.160000	   24.562500
    2.7951	 -0.518000	 -0.742500	  0.395500	   -0.360000	   -0.140000	   -0.010000	   24.539063
    2.8051	 -0.542500	 -0.747000	  0.396500	   -0.580000	   -0.490000	    0.340000	   24.542969
    2.8154	 -0.530000	 -0.736500	  0.404500	   -0.410000	   -0.040000	    0.300000	   24.519531
    2.8252	 -0.537500	 -0.754500	  0.408000	   -0.090000	    0.050000	    0.090000	   24.542969
    2.8351	 -0.521500	 -0.748500	  0.400500	   -0.430000	   -0.420000	    0.210000	   24.546875
    2.8451	 -0.544000	 -0.751000	  0.400000	   -0.390000	   -0.110000	    0.410000	   24.539063
    2.8551	 -0.534000	 -0.737000	  0.403000	   -0.210000	    0.120000	    0.460000	   24.558594
    2.8651	 -0.542000	 -0.753000	  0.408000	   -0.120000	    0.130000	    0.050000	   24.558594
    2.8751	 -0.516500	 -0.745000	  0.397000	   -0.590000	   -0.500000	    0.040000	   24.558594
    2.8851	 -0.540000	 -0.748500	  0.393500	   -0.790000	   -0.360000	    0.440000	   24.582031
    2.8953	 -0.529500	 -0.736500	  0.397500	   -0.260000	    0.040000	    0.370000	   24.570313
    2.9051	 -0.538500	 -0.751000	  0.404000	    0.170000	    0.240000	    0.100000	   24.527344
    2.9151	 -0.517000	 -0.739500	  0.398500	   -0.550000	   -0.370000	    0.100000	   24.535156
    2.9252	 -0.542500	 -0.748500	  0.398500	   -0.780000	   -0.550000	    0.340000	   24.542969
    2.9351	 -0.535500	 -0.739000	  0.405000	   -0.420000	   -0.040000	    0.400000	   24.566406
    2.9451	 -0.538500	 -0.757500	  0.407500	    0.030000	    0.290000	   -0.080000	   24.578125
    2.9551	 -0.519000	 -0.751500	  0.396500	   -0.280000	   -0.320000	    0.010000	   24.570313
    2.9651	 -0.539000	 -0.748000	  0.394000	   -0.590000	   -0.330000	    0.590000	   24.578125
    2.9753	 -0.535000	 -0.736500	  0.400500	   -0.110000	    0.100000	    0.580000	   24.570313
    2.9851	 -0.539000	 -0.750500	  0.402500	    0.110000	    0.260000	    0.280000	   24.562500
    2.9951	 -0.519000	 -0.742000	  0.396500	   -0.450000	   -0.230000	    0.030000	   24.570313
    3.0051	 -0.539000	 -0.745500	  0.397500	   -0.840000	   -0.430000	    0.450000	   24.550781
    3.0151	 -0.535500	 -0.738500	  0.405000	   -0.450000	   -0.170000	    0.310000	   24.558594
    3.0252	 -0.540000	 -0.757500	  0.408000	   -0.130000	    0.070000	   -0.050000	   24.562500
    3.0351	 -0.520500	 -0.748000	  0.398500	   -0.350000	   -0.190000	   -0.010000	   24.566406
    3.0451	 -0.541500	 -0.753000	  0.396500	   -0.530000	   -0.280000	    0.500000	   24.582031
    3.0553	 -0.532000	 -0.737000	  0.402000	   -0.330000	    0.070000	    0.450000	   24.554688
    3.0651	 -0.541500	 -0.751000	  0.407000	   -0.010000	    0.080000	    0.040000	   24.562500
    3.0751	 -0.518000	 -0.743500	  0.396500	   -0.510000	   -0.370000	    0.100000	   24.554688
    3.0851	 -0.538000	 -0.744500	  0.395000	   -0.620000	   -0.420000	    0.520000	   24.574219
    3.0951	 -0.533500	 -0.738000	  0.403000	   -0.190000	    0.020000	    0.320000	   24.589844
    3.1051	 -0.538000	 -0.754000	  0.408000	    0.000000	    0.130000	    0.070000	   24.574219
    3.1151	 -0.520000	 -0.749000	  0.400500	   -0.550000	   -0.510000	    0.040000	   24.570313
    3.1252	 -0.541500	 -0.754500	  0.396000	   -0.670000	   -0.280000	    0.230000	   24.558594
    3.1353	 -0.531000	 -0.739500	  0.401500	   -0.120000	    0.060000	    0.570000	   24.554688
    3.1451	 -0.544000	 -0.751000	  0.406500	    0.110000	    0.300000	    0.140000	   24.585938
    3.1551	 -0.520500	 -0.740500	  0.397500	   -0.550000	   -0.290000	    0.170000	   24.585938
    3.1651	 -0.542000	 -0.742500	  0.396000	   -0.660000	   -0.470000	    0.440000	   24.570313
    3.1752	 -0.533000	 -0.736500	  0.401000	   -0.340000	    0.020000	    0.280000	   24.566406
    3.1851	 -0.536500	 -0.752000	  0.405000	   -0.160000	    0.100000	   -0.030000	   24.566406
    3.1951	 -0.517000	 -0.747000	  0.397500	   -0.410000	   -0.510000	   -0.090000	   24.570313
    3.2051	 -0.538500	 -0.752000	  0.395500	   -0.650000	   -0.460000	    0.520000	   24.578125
    3.2154	 -0.533500	 -0.742500	  0.402500	   -0.250000	   -0.020000	    0.510000	   24.585938
    3.2252	 -0.540500	 -0.755500	  0.406500	    0.140000	    0.250000	    0.080000	   24.570313
    3.2351	 -0.520500	 -0.746500	  0.400000	   -0.430000	   -0.450000	    0.160000	   24.550781
    3.2451	 -0.543000	 -0.746500	  0.398500	   -0.620000	   -0.330000	    0.440000	   24.546875
    3.2551	 -0.535000	 -0.736000	  0.400500	   -0.190000	    0.020000	    0.260000	   24.542969
    3.2651	 -0.538500	 -0.752000	  0.404000	   -0.070000	    0.180000	    0.080000	   24.558594
    3.2752	 -0.517500	 -0.741500	  0.394000	   -0.600000	   -0.410000	    0.140000	   24.562500
    3.2851	 -0.539500	 -0.748500	  0.395500	   -0.630000	   -0.510000	    0.510000	   24.562500
    3.2954	 -0.531500	 -0.736500	  0.403500	   -0.320000	   -0.030000	    0.380000	   24.562500
    3.3051	 -0.540500	 -0.754000	  0.409000	   -0.110000	    0.150000	    0.090000	   24.546875
    3.3152	 -0.520000	 -0.746500	  0.400000	   -0.590000	   -0.370000	    0.130000	   24.570313
    3.3252	 -0.545000	 -0.750500	  0.398500	   -0.640000	   -0.240000	    0.390000	   24.566406
    3.3352	 -0.534000	 -0.739000	  0.404500	   -0.300000	    0.100000	    0.410000	   24.554688
    3.3451	 -0.540500	 -0.754500	  0.406500	   -0.130000	    0.100000	   -0.010000	   24.570313
    3.3552	 -0.516500	 -0.745500	  0.396000	   -0.510000	   -0.530000	    0.080000	   24.582031
    3.3651	 -0.538500	 -0.747500	  0.394000	   -0.710000	   -0.330000	    0.570000	   24.601563
    3.3754	 -0.529500	 -0.736500	  0.401000	   -0.240000	   -0.090000	    0.480000	   24.535156
    3.3851	 -0.541000	 -0.750500	  0.405500	    0.020000	    0.410000	    0.150000	   24.531250
    3.3952	 -0.519500	 -0.741500	  0.399500	   -0.620000	   -0.320000	    0.200000	   24.550781
    3.4051	 -0.545000	 -0.751000	  0.400500	   -0.660000	   -0.540000	    0.350000	   24.582031
    3.4152	 -0.533500	 -0.739000	  0.405500	   -0.430000	   -0.070000	    0.370000	   24.585938
    3.4251	 -0.540000	 -0.757500	  0.407500	    0.040000	    0.110000	   -0.090000	   24.554688
    3.4352	 -0.520500	 -0.748000	  0.394500	   -0.460000	   -0.330000	    0.030000	   24.542969
    3.4452	 -0.540500	 -0.745500	  0.392000	   -0.410000	   -0.080000	    0.430000	   24.566406
    3.4554	 -0.533500	 -0.740000	  0.399500	   -0.200000	    0.110000	    0.460000	   24.585938
    3.4651	 -0.538000	 -0.752000	  0.403500	   -0.220000	    0.020000	    0.120000	   24.554688
    3.4756	 -0.517000	 -0.741000	  0.398000	   -0.690000	   -0.570000	    0.180000	   24.554688
    3.4852	 -0.542000	 -0.747000	  0.401000	   -0.590000	   -0.370000	    0.410000	   24.558594
    3.4952	 -0.534500	 -0.740000	  0.407000	   -0.240000	    0.070000	    0.360000	   24.558594
    3.5052	 -0.540500	 -0.756500	  0.407000	    0.180000	    0.090000	    0.000000	   24.562500
    3.5152	 -0.520500	 -0.747000	  0.397000	   -0.650000	   -0.420000	    0.210000	   24.554688
    3.5252	 -0.544000	 -0.751000	  0.395500	   -0.580000	   -0.370000	    0.510000	   24.554688
    3.5354	 -0.531500	 -0.734500	  0.401000	   -0.020000	    0.050000	    0.340000	   24.546875
    3.5452	 -0.542000	 -0.755000	  0.405000	   -0.030000	    0.230000	    0.050000	   24.558594
    3.5552	 -0.516500	 -0.740000	  0.395500	   -0.530000	   -0.530000	    0.220000	   24.578125
    3.5652	 -0.542000	 -0.743500	  0.396500	   -0.720000	   -0.330000	    0.460000	   24.562500
    3.5752	 -0.531500	 -0.738500	  0.404500	   -0.160000	   -0.080000	    0.210000	   24.570313
    3.5852	 -0.539500	 -0.758500	  0.408000	   -0.100000	    0.220000	   -0.260000	   24.570313
    3.5952	 -0.518000	 -0.751500	  0.398500	   -0.640000	   -0.520000	    0.100000	   24.574219
    3.6052	 -0.544500	 -0.755000	  0.397000	   -0.570000	   -0.340000	    0.370000	   24.562500
    3.6154	 -0.530500	 -0.737500	  0.403000	   -0.090000	    0.210000	    0.580000	   24.539063
    3.6252	 -0.543500	 -0.749500	  0.405500	    0.310000	    0.480000	    0.120000	   24.546875
    3.6352	 -0.518000	 -0.738500	  0.396000	   -0.450000	   -0.300000	    0.210000	   24.566406
    3.6452	 -0.542000	 -0.744000	  0.396500	   -0.880000	   -0.440000	    0.410000	   24.554688
    3.6552	 -0.530000	 -0.735500	  0.403500	   -0.470000	   -0.130000	    0.250000	   24.539063
    3.6652	 -0.536500	 -0.753500	  0.406500	   -0.020000	    0.070000	   -0.170000	   24.542969
    3.6753	 -0.517000	 -0.750500	  0.397000	   -0.540000	   -0.300000	    0.010000	   24.546875
    3.6852	 -0.536000	 -0.742500	  0.401000	   -0.280000	    0.070000	    0.470000	   24.574219
    3.6954	 -0.531500	 -0.739500	  0.402500	   -0.180000	    0.080000	    0.540000	   24.574219
    3.7052	 -0.541500	 -0.755000	  0.407000	    0.170000	    0.230000	    0.020000	   24.574219
    3.7152	 -0.518500	 -0.744000	  0.397500	   -0.630000	   -0.490000	    0.330000	   24.570313
    3.7252	 -0.542500	 -0.746000	  0.396000	   -0.670000	   -0.290000	    0.460000	   24.558594
    3.7352	 -0.532000	 -0.736500	  0.400000	   -0.150000	    0.170000	    0.330000	   24.562500
    3.7452	 -0.538000	 -0.754500	  0.405500	    0.030000	    0.060000	    0.170000	   24.558594
    3.7552	 -0.518000	 -0.741500	  0.395000	   -0.520000	   -0.500000	    0.250000	   24.554688
    3.7652	 -0.542500	 -0.747500	  0.397000	   -0.660000	   -0.230000	    0.370000	   24.546875
    3.7754	 -0.530000	 -0.738000	  0.404500	   -0.270000	    0.100000	    0.440000	   24.554688
    3.7852	 -0.541000	 -0.755500	  0.408500	   -0.110000	   -0.040000	   -0.020000	   24.585938
    3.7952	 -0.520500	 -0.746500	  0.398000	   -0.490000	   -0.490000	    0.130000	   24.574219
    3.8052	 -0.546000	 -0.745500	  0.400000	   -0.510000	   -0.200000	    0.390000	   24.574219
    3.8152	 -0.533500	 -0.736000	  0.402500	   -0.100000	    0.200000	    0.540000	   24.574219
    3.8252	 -0.540500	 -0.754500	  0.404500	    0.060000	    0.240000	   -0.130000	   24.570313
    3.8352	 -0.516500	 -0.746000	  0.394500	   -0.760000	   -0.490000	    0.050000	   24.558594
    3.8452	 -0.541500	 -0.751000	  0.393500	   -0.870000	   -0.590000	    0.460000	   24.582031
    3.8554	 -0.530000	 -0.736000	  0.402500	   -0.090000	    0.160000	    0.420000	   24.570313
    3.8652	 -0.541000	 -0.752000	  0.406000	    0.170000	    0.230000	    0.200000	   24.542969
    3.8752	 -0.522000	 -0.742500	  0.400000	   -0.430000	   -0.220000	    0.210000	   24.550781
    3.8852	 -0.546000	 -0.751000	  0.400000	   -0.760000	   -0.360000	    0.210000	   24.554688
    3.8952	 -0.531000	 -0.737000	  0.405000	   -0.570000	   -0.230000	    0.390000	   24.574219
    3.9052	 -0.540000	 -0.756500	  0.407000	    0.000000	    0.090000	   -0.110000	   24.566406
    3.9152	 -0.517500	 -0.747000	  0.393500	   -0.420000	   -0.340000	    0.060000	   24.585938
    3.9252	 -0.542000	 -0.748000	  0.394000	   -0.480000	   -0.160000	    0.420000	   24.597656
    3.9354	 -0.532000	 -0.737000	  0.400000	   -0.120000	    0.170000	    0.560000	   24.578125
    3.9452	 -0.539500	 -0.751000	  0.404000	   -0.280000	   -0.010000	    0.160000	   24.582031
    3.9552	 -0.518000	 -0.741000	  0.401000	   -0.660000	   -0.370000	    0.110000	   24.570313
    3.9652	 -0.543000	 -0.751000	  0.399000	   -0.760000	   -0.270000	    0.270000	   24.585938
    3.9752	 -0.533500	 -0.741000	  0.405000	   -0.370000	    0.010000	    0.260000	   24.597656
    3.9852	 -0.538500	 -0.755500	  0.408000	    0.130000	    0.160000	   -0.020000	   24.570313
    3.9952	 -0.520000	 -0.742000	  0.396000	   -0.480000	   -0.360000	    0.380000	   24.558594
    4.0052	 -0.544500	 -0.744500	  0.394500	   -0.450000	   -0.170000	    0.390000	   24.527344
    4.0154	 -0.532500	 -0.735000	  0.400000	   -0.080000	    0.360000	    0.270000	   24.566406
    4.0252	 -0.539000	 -0.755000	  0.404000	   -0.160000	   -0.100000	   -0.110000	   24.582031
    4.0352	 -0.514000	 -0.739000	  0.395000	   -0.890000	   -0.760000	    0.220000	   24.574219
    4.0452	 -0.540000	 -0.746000	  0.400500	   -0.620000	   -0.340000	    0.320000	   24.570313
    4.0552	 -0.530500	 -0.738500	  0.406000	    0.010000	    0.260000	    0.430000	   24.550781
    4.0652	 -0.541000	 -0.758500	  0.408000	    0.180000	    0.310000	   -0.110000	   24.531250
    4.0752	 -0.519500	 -0.750000	  0.397500	   -0.540000	   -0.450000	    0.120000	   24.523438
    4.0852	 -0.543000	 -0.750500	  0.396500	   -0.860000	   -0.580000	    0.600000	   24.554688
    4.0954	 -0.531500	 -0.736000	  0.400500	   -0.320000	    0.080000	    0.540000	   24.582031
    4.1052	 -0.542500	 -0.752000	  0.403500	    0.360000	    0.360000	    0.000000	   24.566406
    4.1152	 -0.517500	 -0.739500	  0.394500	   -0.300000	   -0.240000	    0.230000	   24.589844
    4.1252	 -0.540500	 -0.744500	  0.397000	   -0.840000	   -0.590000	    0.430000	   24.582031
    4.1352	 -0.531500	 -0.734500	  0.404500	   -0.600000	   -0.160000	    0.300000	   24.562500
    4.1452	 -0.539000	 -0.754500	  0.406500	   -0.030000	    0.100000	   -0.140000	   24.593750
    4.1552	 -0.519000	 -0.751500	  0.398500	   -0.390000	   -0.310000	    0.140000	   24.570313
    4.1652	 -0.543500	 -0.754000	  0.396000	   -0.620000	   -0.310000	    0.350000	   24.562500
    4.1754	 -0.531000	 -0.740500	  0.403500	   -0.270000	    0.030000	    0.450000	   24.585938
    4.1852	 -0.543500	 -0.756000	  0.406500	   -0.140000	    0.020000	   -0.040000	   24.554688
    4.1952	 -0.518500	 -0.743000	  0.396000	   -0.540000	   -0.480000	    0.320000	   24.562500
    4.2052	 -0.542500	 -0.747000	  0.396000	   -0.450000	   -0.170000	    0.330000	   24.550781
    4.2152	 -0.530500	 -0.738000	  0.402000	   -0.210000	    0.050000	    0.390000	   24.585938
    4.2252	 -0.539000	 -0.755500	  0.406000	   -0.180000	    0.000000	    0.070000	   24.574219
    4.2352	 -0.519000	 -0.743500	  0.396500	   -0.580000	   -0.470000	    0.110000	   24.589844
    4.2452	 -0.544000	 -0.751500	  0.395500	   -0.460000	   -0.250000	    0.300000	   24.585938
    4.2554	 -0.529500	 -0.738500	  0.403500	   -0.080000	    0.080000	    0.350000	   24.554688
    4.2652	 -0.542000	 -0.757000	  0.408500	   -0.140000	    0.110000	   -0.060000	   24.589844
    4.2752	 -0.518000	 -0.741000	  0.397500	   -0.690000	   -0.570000	    0.310000	   24.574219
    4.2852	 -0.544000	 -0.742500	  0.397000	   -0.480000	   -0.130000	    0.600000	   24.562500
    4.2952	 -0.533000	 -0.735500	  0.401000	    0.160000	    0.380000	    0.280000	   24.574219
    4.3052	 -0.538000	 -0.756000	  0.403000	    0.060000	    0.100000	   -0.320000	   24.570313
    4.3152	 -0.514500	 -0.749000	  0.395500	   -1.040000	   -0.720000	   -0.210000	   24.558594
    4.3253	 -0.537000	 -0.752000	  0.396000	   -1.040000	   -0.800000	    0.510000	   24.566406
    4.3354	 -0.527500	 -0.737000	  0.403500	   -0.060000	    0.160000	    0.760000	   24.562500
    4.3452	 -0.542000	 -0.752500	  0.406500	    0.570000	    0.780000	    0.270000	   24.562500
    4.3552	 -0.523000	 -0.746500	  0.400500	   -0.210000	   -0.100000	    0.160000	   24.558594
    4.3652	 -0.545500	 -0.751000	  0.401000	   -1.090000	   -0.780000	    0.460000	   24.550781
    4.3752	 -0.532500	 -0.733500	  0.403500	   -0.720000	   -0.490000	    0.340000	   24.562500
    4.3852	 -0.538500	 -0.753000	  0.404500	    0.030000	    0.320000	   -0.150000	   24.605469
    4.3952	 -0.519000	 -0.748000	  0.394000	   -0.080000	   -0.100000	   -0.020000	   24.593750
    4.4052	 -0.539000	 -0.748000	  0.390500	   -0.490000	   -0.200000	    0.560000	   24.582031
    4.4154	 -0.533000	 -0.737000	  0.400500	   -0.490000	    0.070000	    0.560000	   24.566406
    4.4252	 -0.537500	 -0.750000	  0.406000	   -0.280000	   -0.200000	    0.060000	   24.558594
    4.4352	 -0.521000	 -0.746000	  0.399500	   -0.570000	   -0.540000	   -0.050000	   24.585938
    4.4452	 -0.541500	 -0.752000	  0.399000	   -0.440000	   -0.310000	    0.340000	   24.574219
    4.4552	 -0.533500	 -0.739000	  0.406000	   -0.190000	    0.120000	    0.400000	   24.574219
    4.4652	 -0.540500	 -0.755500	  0.408000	    0.000000	    0.340000	    0.140000	   24.582031
    4.4756	 -0.520000	 -0.743000	  0.395500	   -0.500000	   -0.510000	    0.160000	   24.566406
    4.4852	 -0.544000	 -0.746500	  0.392500	   -0.520000	   -0.400000	    0.490000	   24.566406
    4.4954	 -0.532000	 -0.735500	  0.397500	    0.050000	    0.200000	    0.340000	   24.562500
    4.5052	 -0.538000	 -0.753500	  0.406500	   -0.260000	    0.030000	   -0.030000	   24.539063
    4.5152	 -0.518500	 -0.743500	  0.400000	   -0.760000	   -0.510000	    0.050000	   24.554688
    4.5253	 -0.541500	 -0.747000	  0.399500	   -0.780000	   -0.490000	    0.540000	   24.554688
    4.5352	 -0.532000	 -0.737500	  0.407000	   -0.180000	    0.140000	    0.440000	   24.562500
    4.5452	 -0.540500	 -0.758500	  0.408500	    0.310000	    0.330000	   -0.180000	   24.570313
    4.5552	 -0.518000	 -0.749500	  0.398500	   -0.590000	   -0.500000	   -0.040000	   24.562500
    4.5652	 -0.542500	 -0.750500	  0.395000	   -1.010000	   -0.640000	    0.590000	   24.558594
    4.5754	 -0.531000	 -0.735000	  0.398000	   -0.170000	    0.060000	    0.560000	   24.554688
    4.5852	 -0.540000	 -0.751500	  0.402500	    0.290000	    0.540000	    0.120000	   24.570313
    4.5952	 -0.516500	 -0.743000	  0.398000	   -0.370000	   -0.340000	   -0.050000	   24.554688
    4.6052	 -0.539500	 -0.746500	  0.398500	   -1.060000	   -0.770000	    0.410000	   24.570313
    4.6152	 -0.531500	 -0.736000	  0.405000	   -0.520000	   -0.250000	    0.390000	   24.562500
    4.6253	 -0.538000	 -0.753500	  0.406500	    0.060000	    0.240000	    0.090000	   24.562500
    4.6352	 -0.521500	 -0.750500	  0.399000	   -0.220000	   -0.050000	    0.080000	   24.574219
    4.6452	 -0.541500	 -0.751500	  0.396000	   -0.580000	   -0.350000	    0.480000	   24.578125
    4.6555	 -0.534000	 -0.739500	  0.402000	   -0.480000	   -0.010000	    0.480000	   24.570313
    4.6652	 -0.525500	 -0.747500	  0.398500	   -0.320000	   -0.290000	   -0.160000	   24.589844
    4.6753	 -0.519000	 -0.745000	  0.395000	   -0.470000	   -0.390000	    0.020000	   24.589844
    4.6852	 -0.539500	 -0.748000	  0.394500	   -0.680000	   -0.350000	    0.550000	   24.562500
    4.6952	 -0.532500	 -0.736500	  0.401000	   -0.290000	    0.060000	    0.380000	   24.539063
    4.7052	 -0.538500	 -0.750500	  0.406500	   -0.010000	    0.050000	    0.130000	   24.578125
    4.7152	 -0.520000	 -0.742000	  0.398500	   -0.480000	   -0.440000	    0.240000	   24.589844
    4.7253	 -0.544500	 -0.753500	  0.395500	   -0.720000	   -0.300000	    0.290000	   24.558594
    4.7354	 -0.530500	 -0.739500	  0.403500	   -0.130000	    0.000000	    0.180000	   24.585938
    4.7452	 -0.541000	 -0.758000	  0.408500	   -0.020000	    0.110000	    0.010000	   24.585938
    4.7552	 -0.519000	 -0.742000	  0.398500	   -0.590000	   -0.470000	    0.410000	   24.589844
    4.7652	 -0.543500	 -0.741500	  0.395000	   -0.420000	   -0.050000	    0.500000	   24.566406
    4.7752	 -0.534500	 -0.735000	  0.400000	    0.030000	    0.420000	    0.290000	   24.558594
    4.7852	 -0.538000	 -0.755500	  0.405000	   -0.170000	    0.180000	   -0.130000	   24.593750
    4.7952	 -0.514500	 -0.745500	  0.395000	   -0.830000	   -0.870000	   -0.120000	   24.582031
    4.8053	 -0.542500	 -0.751500	  0.399000	   -0.750000	   -0.340000	    0.400000	   24.589844
    4.8155	 -0.528500	 -0.739000	  0.403000	   -0.050000	    0.330000	    0.670000	   24.574219
    4.8253	 -0.543000	 -0.752000	  0.407000	    0.510000	    0.670000	    0.130000	   24.558594
    4.8352	 -0.520500	 -0.743000	  0.400500	   -0.180000	   -0.210000	    0.050000	   24.574219
    4.8452	 -0.545000	 -0.749500	  0.399500	   -1.020000	   -0.750000	    0.400000	   24.589844
    4.8552	 -0.533000	 -0.735000	  0.402500	   -0.680000	   -0.320000	    0.190000	   24.566406
    4.8652	 -0.538000	 -0.756000	  0.404500	    0.140000	    0.290000	   -0.150000	   24.554688
    4.8752	 -0.516500	 -0.746500	  0.393500	   -0.340000	   -0.140000	    0.090000	   24.546875
    4.8852	 -0.539500	 -0.748000	  0.393500	   -0.480000	   -0.350000	    0.560000	   24.535156
    4.8954	 -0.534500	 -0.738500	  0.402000	   -0.370000	   -0.030000	    0.480000	   24.550781
    4.9052	 -0.541000	 -0.753500	  0.406500	   -0.220000	   -0.040000	    0.120000	   24.542969
    4.9152	 -0.521000	 -0.747500	  0.400500	   -0.550000	   -0.410000	    0.060000	   24.570313
    4.9253	 -0.542500	 -0.755000	  0.399000	   -0.560000	   -0.380000	    0.230000	   24.574219
    4.9352	 -0.531500	 -0.738000	  0.404000	   -0.280000	   -0.080000	    0.500000	   24.578125
    4.9452	 -0.542000	 -0.753500	  0.407500	    0.180000	    0.170000	    0.090000	   24.582031
    4.9552	 -0.517500	 -0.739000	  0.393000	   -0.340000	   -0.380000	    0.300000	   24.570313
    4.9652	 -0.542000	 -0.745500	  0.393000	   -0.520000	   -0.190000	    0.270000	   24.554688
    4.9755	 -0.529000	 -0.739000	  0.401000	   -0.250000	    0.010000	    0.220000	   24.578125
    4.9852	 -0.539000	 -0.755500	  0.406000	   -0.320000	   -0.220000	    0.010000	   24.546875
    4.9952	 -0.516000	 -0.741000	  0.399500	   -0.780000	   -0.650000	    0.250000	   24.546875
    5.0052	 -0.544000	 -0.748500	  0.401000	   -0.470000	   -0.220000	    0.480000	   24.542969
    5.0152	 -0.533000	 -0.737500	  0.405500	   -0.050000	    0.340000	    0.520000	   24.546875
    5.0253	 -0.541500	 -0.756500	  0.406000	    0.010000	    0.310000	   -0.010000	   24.550781
    5.0352	 -0.517000	 -0.746500	  0.397000	   -0.740000	   -0.720000	    0.020000	   24.554688
    5.0453	 -0.542000	 -0.748000	  0.395000	   -0.780000	   -0.500000	    0.360000	   24.554688
    5.0555	 -0.530500	 -0.736000	  0.400000	   -0.010000	    0.130000	    0.390000	   24.566406
    5.0653	 -0.540000	 -0.754500	  0.403000	    0.210000	    0.340000	    0.060000	   24.570313
    5.0753	 -0.517500	 -0.738500	  0.394500	   -0.510000	   -0.460000	    0.310000	   24.562500
    5.0853	 -0.543000	 -0.743000	  0.399000	   -0.780000	   -0.380000	    0.460000	   24.558594
    5.0952	 -0.532500	 -0.736500	  0.406000	   -0.400000	   -0.070000	    0.380000	   24.558594
    5.1053	 -0.539000	 -0.759000	  0.408500	    0.060000	    0.040000	   -0.310000	   24.570313
    5.1152	 -0.519500	 -0.753500	  0.397500	   -0.460000	   -0.590000	   -0.030000	   24.550781
    5.1253	 -0.541500	 -0.753500	  0.396500	   -0.790000	   -0.510000	    0.610000	   24.578125
    5.1355	 -0.531500	 -0.735500	  0.401000	   -0.160000	    0.210000	    0.840000	   24.582031
    5.1453	 -0.542500	 -0.750500	  0.403500	    0.150000	    0.450000	    0.260000	   24.566406
    5.1552	 -0.519500	 -0.742500	  0.395500	   -0.300000	   -0.180000	    0.100000	   24.546875
    5.1653	 -0.539500	 -0.745500	  0.395500	   -0.920000	   -0.630000	    0.410000	   24.550781
    5.1753	 -0.532000	 -0.737000	  0.403000	   -0.520000	   -0.220000	    0.210000	   24.582031
    5.1853	 -0.537500	 -0.755500	  0.408000	   -0.160000	   -0.030000	    0.050000	   24.605469
    5.1953	 -0.522500	 -0.748500	  0.398500	   -0.300000	   -0.150000	    0.250000	   24.562500
    5.2053	 -0.544500	 -0.752500	  0.394500	   -0.300000	    0.000000	    0.320000	   24.570313
    5.2155	 -0.530500	 -0.735500	  0.404000	   -0.230000	    0.160000	    0.380000	   24.585938
    5.2253	 -0.541000	 -0.756500	  0.409500	   -0.450000	   -0.180000	   -0.020000	   24.570313
    5.2353	 -0.518500	 -0.740500	  0.397000	   -0.820000	   -0.680000	    0.360000	   24.585938
    5.2453	 -0.542500	 -0.745500	  0.394000	   -0.200000	   -0.170000	    0.340000	   24.574219
    5.2553	 -0.530500	 -0.738500	  0.400500	    0.040000	    0.500000	    0.320000	   24.585938
    5.2653	 -0.539000	 -0.755000	  0.404500	   -0.100000	    0.070000	    0.090000	   24.574219
    5.2753	 -0.517000	 -0.743000	  0.396500	   -0.810000	   -0.680000	    0.070000	   24.558594
    5.2853	 -0.542500	 -0.748500	  0.397000	   -1.020000	   -0.430000	    0.520000	   24.562500
    5.2955	 -0.532000	 -0.741500	  0.401500	   -0.190000	    0.180000	    0.420000	   24.570313
    5.3053	 -0.538500	 -0.759000	  0.409000	    0.270000	    0.350000	   -0.130000	   24.546875
    5.3153	 -0.520000	 -0.746000	  0.398000	   -0.580000	   -0.510000	    0.250000	   24.558594
    5.3253	 -0.544000	 -0.746500	  0.398000	   -0.890000	   -0.610000	    0.670000	   24.574219
    5.3353	 -0.534000	 -0.731000	  0.402500	   -0.100000	    0.000000	    0.550000	   24.593750
    5.3453	 -0.538500	 -0.752000	  0.403000	    0.300000	    0.560000	   -0.230000	   24.589844
    5.3553	 -0.516500	 -0.747500	  0.395000	   -0.470000	   -0.520000	   -0.010000	   24.585938
    5.3653	 -0.538500	 -0.748500	  0.395000	   -1.110000	   -0.900000	    0.490000	   24.578125
    5.3755	 -0.531000	 -0.739500	  0.402000	   -0.470000	   -0.090000	    0.490000	   24.558594
    5.3853	 -0.539500	 -0.754000	  0.407500	    0.260000	    0.490000	    0.120000	   24.554688
    5.3953	 -0.523000	 -0.749000	  0.400000	   -0.230000	   -0.040000	    0.030000	   24.554688
    5.4053	 -0.545500	 -0.751000	  0.398500	   -0.570000	   -0.500000	    0.470000	   24.558594
    5.4153	 -0.534500	 -0.737500	  0.403000	   -0.490000	   -0.210000	    0.290000	   24.558594
    5.4253	 -0.541000	 -0.752500	  0.404000	   -0.110000	    0.080000	    0.100000	   24.574219
    5.4353	 -0.519500	 -0.742000	  0.393500	   -0.420000	   -0.190000	    0.160000	   24.582031
    5.4453	 -0.542500	 -0.747500	  0.393000	   -0.300000	   -0.140000	    0.520000	   24.566406
    5.4555	 -0.530000	 -0.738000	  0.402000	   -0.310000	    0.170000	    0.250000	   24.570313
    5.4653	 -0.538000	 -0.753500	  0.408000	   -0.470000	   -0.210000	   -0.010000	   24.558594
    5.4757	 -0.517500	 -0.742500	  0.398500	   -0.790000	   -0.660000	    0.150000	   24.554688
    5.4853	 -0.545000	 -0.751000	  0.399000	   -0.460000	   -0.160000	    0.270000	   24.562500
    5.4953	 -0.533000	 -0.740000	  0.406000	    0.040000	    0.290000	    0.360000	   24.558594
    5.5053	 -0.540500	 -0.759000	  0.407500	    0.000000	    0.230000	   -0.070000	   24.570313
    5.5153	 -0.516500	 -0.747500	  0.395500	   -0.750000	   -0.750000	    0.180000	   24.593750
    5.5253	 -0.543000	 -0.748500	  0.393500	   -0.800000	   -0.340000	    0.550000	   24.562500
    5.5355	 -0.530500	 -0.735500	  0.399500	    0.100000	    0.320000	    0.430000	   24.574219
    5.5453	 -0.540000	 -0.750500	  0.403500	    0.190000	    0.420000	    0.020000	   24.562500
    5.5553	 -0.518500	 -0.738500	  0.398000	   -0.440000	   -0.480000	    0.210000	   24.574219
    5.5653	 -0.542000	 -0.743500	  0.400500	   -0.930000	   -0.580000	    0.470000	   24.570313
    5.5753	 -0.533000	 -0.738500	  0.406500	   -0.520000	   -0.170000	    0.250000	   24.585938
    5.5853	 -0.538000	 -0.759500	  0.408000	    0.180000	    0.110000	   -0.150000	   24.597656
    5.5953	 -0.520000	 -0.754500	  0.398000	   -0.440000	   -0.380000	    0.030000	   24.585938
    5.6053	 -0.540000	 -0.754000	  0.394500	   -0.690000	   -0.370000	    0.500000	   24.570313
    5.6155	 -0.532500	 -0.736000	  0.400000	   -0.210000	    0.120000	    0.810000	   24.574219
    5.6253	 -0.541000	 -0.751500	  0.403000	    0.240000	    0.310000	    0.230000	   24.562500
    5.6353	 -0.519500	 -0.744500	  0.397000	   -0.380000	   -0.160000	   -0.050000	   24.562500
    5.6453	 -0.539500	 -0.745000	  0.396500	   -0.960000	   -0.730000	    0.470000	   24.585938
    5.6553	 -0.532500	 -0.737500	  0.405500	   -0.520000	   -0.290000	    0.350000	   24.585938
    5.6653	 -0.539500	 -0.753500	  0.408000	   -0.040000	    0.230000	    0.150000	   24.582031
    5.6753	 -0.523500	 -0.748500	  0.396500	   -0.260000	   -0.250000	    0.210000	   24.554688
    5.6853	 -0.545000	 -0.753000	  0.394000	   -0.330000	   -0.100000	    0.370000	   24.582031
    5.6955	 -0.530000	 -0.737000	  0.402500	   -0.380000	   -0.090000	    0.430000	   24.593750
    5.7053	 -0.541000	 -0.752500	  0.407000	   -0.260000	   -0.060000	   -0.080000	   24.566406
    5.7153	 -0.517000	 -0.742500	  0.398000	   -0.610000	   -0.550000	    0.140000	   24.574219
    5.7253	 -0.539000	 -0.744000	  0.395000	   -0.450000	   -0.170000	    0.290000	   24.566406
    5.7353	 -0.530500	 -0.738000	  0.400500	   -0.060000	    0.300000	    0.280000	   24.546875
    5.7453	 -0.537000	 -0.753500	  0.407500	   -0.190000	    0.090000	    0.110000	   24.546875
    5.7554	 -0.519000	 -0.746500	  0.399000	   -0.970000	   -0.680000	    0.050000	   24.554688
    5.7653	 -0.536500	 -0.744000	  0.400000	   -0.190000	    0.060000	    0.210000	   24.546875
    5.7755	 -0.531500	 -0.738000	  0.401000	    0.010000	    0.270000	    0.350000	   24.550781
    5.7853	 -0.541500	 -0.754500	  0.407500	    0.360000	    0.600000	    0.110000	   24.582031
    5.7953	 -0.520500	 -0.742500	  0.400000	   -0.400000	   -0.430000	    0.230000	   24.585938
    5.8053	 -0.545000	 -0.742500	  0.397000	   -0.740000	   -0.490000	    0.500000	   24.578125
    5.8153	 -0.533500	 -0.733500	  0.402000	   -0.350000	    0.060000	    0.280000	   24.558594
    5.8253	 -0.536500	 -0.753000	  0.406500	    0.030000	    0.200000	   -0.130000	   24.570313
    5.8353	 -0.516500	 -0.747500	  0.397500	   -0.430000	   -0.440000	   -0.160000	   24.539063
    5.8453	 -0.537500	 -0.751500	  0.394500	   -0.860000	   -0.710000	    0.430000	   24.570313
    5.8555	 -0.532000	 -0.741000	  0.402500	   -0.320000	   -0.050000	    0.530000	   24.574219
    5.8653	 -0.540000	 -0.755500	  0.407500	    0.200000	    0.300000	    0.110000	   24.562500
    5.8753	 -0.520000	 -0.748000	  0.400000	   -0.420000	   -0.300000	    0.010000	   24.558594
    5.8853	 -0.544000	 -0.750000	  0.399000	   -0.760000	   -0.470000	    0.530000	   24.570313
    5.8953	 -0.535000	 -0.736000	  0.403000	   -0.280000	   -0.040000	    0.390000	   24.550781
    5.9053	 -0.540500	 -0.752500	  0.405000	   -0.140000	    0.160000	    0.040000	   24.558594
    5.9153	 -0.517500	 -0.739000	  0.392000	   -0.220000	   -0.160000	    0.220000	   24.546875
    5.9253	 -0.543000	 -0.744500	  0.393500	   -0.570000	   -0.090000	    0.560000	   24.542969
    5.9355	 -0.532500	 -0.737000	  0.402000	   -0.300000	    0.100000	    0.250000	   24.550781
    5.9453	 -0.539000	 -0.754000	  0.409000	   -0.310000	   -0.240000	    0.080000	   24.546875
    5.9553	 -0.518500	 -0.743000	  0.399500	   -0.740000	   -0.670000	    0.170000	   24.558594
    5.9653	 -0.543000	 -0.754000	  0.400500	   -0.510000	   -0.180000	    0.220000	   24.542969
    5.9753	 -0.532500	 -0.740000	  0.406500	    0.010000	    0.240000	    0.440000	   24.566406
    5.9853	 -0.541000	 -0.757000	  0.407500	    0.170000	    0.400000	   -0.130000	   24.574219
    5.9953	 -0.515500	 -0.745500	  0.396000	   -0.650000	   -0.630000	    0.060000	   24.562500
    6.0053	 -0.541000	 -0.748500	  0.393500	   -0.780000	   -0.440000	    0.470000	   24.558594
    6.0155	 -0.529500	 -0.736500	  0.399000	   -0.340000	    0.070000	    0.500000	   24.570313
    6.0254	 -0.539500	 -0.749500	  0.404000	    0.160000	    0.440000	    0.140000	   24.570313
    6.0353	 -0.518000	 -0.736500	  0.397500	   -0.320000	   -0.230000	    0.360000	   24.550781
    6.0453	 -0.544500	 -0.745000	  0.401500	   -0.710000	   -0.380000	    0.350000	   24.542969
    6.0553	 -0.534000	 -0.739500	  0.407000	   -0.480000	   -0.220000	    0.250000	   24.562500
    6.0653	 -0.537500	 -0.760500	  0.407500	   -0.190000	   -0.030000	   -0.130000	   24.585938
    6.0753	 -0.519000	 -0.750500	  0.396000	   -0.550000	   -0.460000	    0.140000	   24.570313
    6.0853	 -0.539000	 -0.750500	  0.393000	   -0.300000	   -0.140000	    0.480000	   24.562500
    6.0955	 -0.532500	 -0.738500	  0.398500	    0.020000	    0.340000	    0.610000	   24.566406
    6.1053	 -0.541000	 -0.753000	  0.402500	   -0.100000	    0.080000	    0.120000	   24.589844
    6.1153	 -0.516500	 -0.741000	  0.396000	   -0.670000	   -0.680000	    0.210000	   24.574219
    6.1254	 -0.539000	 -0.746000	  0.399500	   -0.650000	   -0.230000	    0.260000	   24.574219
    6.1353	 -0.532000	 -0.739500	  0.406500	   -0.340000	    0.020000	    0.290000	   24.574219
    6.1453	 -0.540500	 -0.756500	  0.408500	    0.140000	    0.180000	    0.090000	   24.554688
    6.1553	 -0.525500	 -0.746000	  0.396500	   -0.320000	   -0.290000	    0.350000	   24.585938
    6.1653	 -0.546000	 -0.747500	  0.394500	   -0.300000	   -0.100000	    0.460000	   24.585938
    6.1755	 -0.532000	 -0.735000	  0.401500	   -0.160000	    0.030000	    0.270000	   24.574219
    6.1853	 -0.541500	 -0.754000	  0.404500	   -0.220000	   -0.110000	   -0.140000	   24.546875
    6.1953	 -0.516000	 -0.740500	  0.396000	   -0.810000	   -0.640000	    0.270000	   24.542969
    6.2053	 -0.540500	 -0.745500	  0.397500	   -0.480000	   -0.190000	    0.370000	   24.558594
    6.2153	 -0.530000	 -0.739000	  0.405000	    0.070000	    0.510000	    0.180000	   24.566406
    6.2254	 -0.540500	 -0.759000	  0.408500	   -0.080000	   -0.010000	   -0.030000	   24.566406
    6.2353	 -0.518500	 -0.749500	  0.398500	   -0.800000	   -0.720000	    0.230000	   24.558594
    6.2453	 -0.543000	 -0.755500	  0.397500	   -0.830000	   -0.580000	    0.260000	   24.570313
    6.2555	 -0.529000	 -0.738500	  0.403500	   -0.190000	    0.190000	    0.660000	   24.578125
    6.2653	 -0.542000	 -0.753500	  0.405500	    0.400000	    0.460000	    0.050000	   24.566406
    6.2753	 -0.520000	 -0.737000	  0.395500	   -0.570000	   -0.350000	    0.450000	   24.585938
    6.2853	 -0.544000	 -0.743000	  0.396500	   -0.550000	   -0.420000	    0.380000	   24.601563
    6.2953	 -0.531500	 -0.733500	  0.402500	   -0.370000	   -0.260000	    0.390000	   24.578125
    6.3053	 -0.538000	 -0.755000	  0.406000	   -0.040000	    0.070000	   -0.170000	   24.566406
    6.3153	 -0.517500	 -0.746000	  0.396500	   -0.550000	   -0.520000	    0.230000	   24.574219
    6.3254	 -0.541500	 -0.749500	  0.396000	   -0.550000	   -0.210000	    0.430000	   24.566406
    6.3355	 -0.531500	 -0.741500	  0.402500	   -0.170000	    0.080000	    0.430000	   24.570313
    6.3453	 -0.541000	 -0.758000	  0.407000	    0.020000	   -0.010000	   -0.050000	   24.542969
    6.3553	 -0.519000	 -0.745500	  0.398500	   -0.790000	   -0.620000	    0.330000	   24.562500
    6.3653	 -0.543000	 -0.746000	  0.397500	   -0.620000	   -0.360000	    0.430000	   24.558594
    6.3753	 -0.532000	 -0.734500	  0.402500	    0.060000	    0.300000	    0.300000	   24.558594
    6.3853	 -0.540000	 -0.753500	  0.403000	    0.100000	    0.210000	    0.080000	   24.578125
    6.3953	 -0.520500	 -0.739500	  0.392500	   -0.600000	   -0.450000	    0.370000	   24.574219
    6.4053	 -0.544000	 -0.746000	  0.396000	   -0.630000	   -0.360000	    0.440000	   24.566406
    6.4155	 -0.531000	 -0.737500	  0.403500	   -0.230000	    0.080000	    0.200000	   24.585938
    6.4253	 -0.538500	 -0.758500	  0.409500	   -0.190000	   -0.040000	   -0.120000	   24.554688
    6.4353	 -0.520500	 -0.748500	  0.400000	   -0.740000	   -0.540000	    0.220000	   24.554688
    6.4453	 -0.544000	 -0.751500	  0.400000	   -0.480000	   -0.250000	    0.440000	   24.562500
    6.4553	 -0.531500	 -0.737500	  0.404000	   -0.170000	    0.230000	    0.590000	   24.546875
    6.4653	 -0.541000	 -0.757000	  0.405500	    0.100000	    0.200000	   -0.090000	   24.558594
    6.4757	 -0.515500	 -0.746500	  0.393500	   -0.700000	   -0.540000	    0.140000	   24.562500
    6.4853	 -0.540000	 -0.748000	  0.394000	   -0.910000	   -0.550000	    0.480000	   24.574219
    6.4955	 -0.528500	 -0.736500	  0.401000	   -0.180000	    0.020000	    0.590000	   24.609375
    6.5053	 -0.537500	 -0.751000	  0.406000	    0.090000	    0.460000	    0.150000	   24.597656
    6.5153	 -0.522000	 -0.742500	  0.400000	   -0.340000	   -0.220000	    0.320000	   24.570313
    6.5254	 -0.546500	 -0.749500	  0.400500	   -0.810000	   -0.480000	    0.230000	   24.574219
    6.5353	 -0.532000	 -0.736500	  0.405000	   -0.500000	   -0.250000	    0.420000	   24.566406
    6.5453	 -0.539500	 -0.756500	  0.408500	    0.060000	    0.070000	   -0.190000	   24.578125
    6.5553	 -0.519500	 -0.748000	  0.395500	   -0.610000	   -0.470000	    0.190000	   24.582031
    6.5653	 -0.541500	 -0.747000	  0.393000	   -0.490000	   -0.240000	    0.520000	   24.582031
    6.5756	 -0.532500	 -0.738500	  0.399000	   -0.060000	    0.180000	    0.500000	   24.574219
    6.5853	 -0.537500	 -0.754500	  0.404500	   -0.180000	    0.010000	    0.010000	   24.550781
    6.5953	 -0.517000	 -0.744500	  0.399000	   -0.770000	   -0.760000	    0.120000	   24.570313
    6.6053	 -0.540500	 -0.749000	  0.398500	   -0.810000	   -0.550000	    0.370000	   24.562500
    6.6153	 -0.533000	 -0.740000	  0.405000	   -0.070000	    0.210000	    0.400000	   24.585938
    6.6254	 -0.539500	 -0.755000	  0.407500	    0.300000	    0.380000	    0.040000	   24.550781
    6.6353	 -0.524000	 -0.745000	  0.396500	   -0.520000	   -0.410000	    0.280000	   24.562500
    6.6453	 -0.546500	 -0.748000	  0.394500	   -0.690000	   -0.400000	    0.610000	   24.554688
    6.6556	 -0.533500	 -0.736000	  0.399000	   -0.240000	    0.140000	    0.270000	   24.554688
    6.6653	 -0.539000	 -0.753000	  0.405000	   -0.090000	    0.150000	   -0.100000	   24.570313
    6.6754	 -0.515500	 -0.741000	  0.397000	   -0.750000	   -0.590000	    0.160000	   24.566406
    6.6854	 -0.541500	 -0.745500	  0.397500	   -0.660000	   -0.420000	    0.510000	   24.546875
    6.6954	 -0.537000	 -0.750500	  0.409500	    0.170000	    0.360000	    0.150000	   24.566406
    6.7054	 -0.540000	 -0.758000	  0.409500	    0.190000	    0.200000	   -0.050000	   24.566406
    6.7154	 -0.519500	 -0.752500	  0.399500	   -0.580000	   -0.540000	    0.060000	   24.589844
    6.7254	 -0.544000	 -0.753500	  0.396500	   -0.680000	   -0.440000	    0.400000	   24.570313
    6.7356	 -0.532500	 -0.736000	  0.400500	   -0.060000	    0.130000	    0.620000	   24.550781
    6.7454	 -0.543000	 -0.750000	  0.403000	    0.130000	    0.490000	    0.120000	   24.574219
    6.7554	 -0.520000	 -0.741000	  0.396500	   -0.420000	   -0.250000	    0.080000	   24.570313
    6.7653	 -0.539500	 -0.743500	  0.397000	   -0.870000	   -0.540000	    0.480000	   24.566406
    6.7754	 -0.532000	 -0.732000	  0.402500	   -0.460000	   -0.090000	    0.340000	   24.570313
    6.7853	 -0.534500	 -0.749500	  0.406500	   -0.130000	    0.300000	   -0.030000	   24.566406
    6.7954	 -0.520500	 -0.753500	  0.399000	   -0.380000	   -0.250000	   -0.270000	   24.562500
    6.8054	 -0.540000	 -0.751500	  0.395000	   -0.750000	   -0.590000	    0.530000	   24.574219
    6.8156	 -0.533000	 -0.740500	  0.403500	   -0.300000	    0.010000	    0.640000	   24.574219
    6.8254	 -0.539500	 -0.752500	  0.408000	    0.130000	    0.590000	    0.320000	   24.585938
    6.8354	 -0.526000	 -0.751500	  0.399500	   -0.220000	   -0.200000	    0.110000	   24.585938
    6.8454	 -0.539500	 -0.749000	  0.394000	   -0.780000	   -0.570000	    0.590000	   24.570313
    6.8554	 -0.534500	 -0.736500	  0.401000	   -0.490000	   -0.160000	    0.320000	   24.593750
    6.8654	 -0.537500	 -0.745500	  0.406500	   -0.040000	    0.120000	    0.370000	   24.574219
    6.8754	 -0.525500	 -0.742000	  0.397500	   -0.160000	   -0.100000	    0.100000	   24.582031
    6.8854	 -0.541000	 -0.742000	  0.392000	   -0.500000	   -0.230000	    0.590000	   24.574219
    6.8956	 -0.535500	 -0.737500	  0.402000	   -0.440000	   -0.050000	    0.260000	   24.578125
    6.9054	 -0.537500	 -0.755500	  0.410000	   -0.420000	   -0.230000	   -0.110000	   24.570313
    6.9154	 -0.523500	 -0.752500	  0.401000	   -0.840000	   -0.710000	   -0.220000	   24.566406
    6.9254	 -0.536500	 -0.754500	  0.394000	   -0.650000	   -0.190000	    0.470000	   24.574219
    6.9354	 -0.533000	 -0.736500	  0.400000	    0.190000	    0.440000	    0.860000	   24.593750
    6.9454	 -0.537500	 -0.743500	  0.405500	    0.460000	    0.640000	    0.160000	   24.582031
    6.9554	 -0.520000	 -0.745500	  0.399000	   -0.380000	   -0.510000	   -0.250000	   24.582031
    6.9654	 -0.535000	 -0.748000	  0.395000	   -1.490000	   -1.140000	    0.400000	   24.558594
    6.9756	 -0.532500	 -0.738500	  0.400500	   -0.650000	   -0.450000	    0.280000	   24.585938
    6.9854	 -0.534000	 -0.751500	  0.409000	    0.270000	    0.650000	    0.140000	   24.585938
    6.9954	 -0.524500	 -0.745000	  0.402500	    0.230000	    0.190000	    0.270000	   24.597656
    7.0054	 -0.543500	 -0.749000	  0.396500	   -0.550000	   -0.160000	    0.410000	   24.574219
    7.0154	 -0.536500	 -0.738000	  0.404500	   -0.590000	   -0.370000	    0.360000	   24.550781
    7.0254	 -0.537500	 -0.748500	  0.405500	   -0.270000	   -0.100000	   -0.010000	   24.574219
    7.0354	 -0.519000	 -0.746000	  0.398000	   -0.310000	   -0.300000	   -0.210000	   24.578125
    7.0454	 -0.535500	 -0.747000	  0.391500	   -0.680000	   -0.270000	    0.470000	   24.570313
    7.0556	 -0.533500	 -0.741000	  0.398000	   -0.150000	    0.050000	    0.410000	   24.566406
    7.0654	 -0.536500	 -0.747500	  0.404000	   -0.150000	    0.040000	    0.390000	   24.566406
    7.0754	 -0.520000	 -0.741500	  0.400000	   -0.310000	   -0.460000	    0.150000	   24.585938
    7.0854	 -0.539500	 -0.752500	  0.397500	   -0.810000	   -0.380000	    0.320000	   24.566406
    7.0954	 -0.538000	 -0.746500	  0.405000	   -0.400000	   -0.070000	    0.200000	   24.550781
    7.1054	 -0.540000	 -0.752500	  0.407000	   -0.040000	    0.140000	    0.060000	   24.582031
    7.1154	 -0.522000	 -0.744500	  0.398000	   -0.360000	   -0.100000	    0.270000	   24.562500
    7.1254	 -0.543500	 -0.746500	  0.394500	   -0.550000	   -0.170000	    0.600000	   24.566406
    7.1356	 -0.536500	 -0.736500	  0.399500	   -0.080000	    0.150000	    0.280000	   24.562500
    7.1454	 -0.539500	 -0.752500	  0.403500	   -0.210000	   -0.040000	    0.060000	   24.542969
    7.1554	 -0.517000	 -0.739500	  0.396500	   -0.680000	   -0.610000	    0.050000	   24.554688
    7.1654	 -0.538000	 -0.742500	  0.396500	   -0.550000	   -0.220000	    0.320000	   24.578125
    7.1754	 -0.536000	 -0.743000	  0.405000	   -0.040000	    0.170000	    0.360000	   24.566406
    7.1854	 -0.541500	 -0.755000	  0.408000	    0.050000	    0.190000	    0.040000	   24.550781
    7.1954	 -0.517500	 -0.750000	  0.401000	   -0.640000	   -0.470000	   -0.140000	   24.546875
    7.2054	 -0.538500	 -0.755500	  0.398000	   -0.890000	   -0.480000	    0.360000	   24.585938
    7.2156	 -0.531000	 -0.741500	  0.403500	   -0.300000	    0.010000	    0.440000	   24.578125
    7.2254	 -0.543500	 -0.752500	  0.403500	    0.340000	    0.620000	    0.190000	   24.566406
    7.2354	 -0.520500	 -0.742000	  0.397500	   -0.070000	   -0.060000	    0.120000	   24.558594
    7.2454	 -0.539500	 -0.744000	  0.396500	   -0.820000	   -0.430000	    0.480000	   24.585938
    7.2554	 -0.535500	 -0.738500	  0.405000	   -0.610000	   -0.500000	    0.290000	   24.605469
    7.2654	 -0.538500	 -0.751000	  0.409000	   -0.250000	    0.060000	    0.060000	   24.601563
    7.2754	 -0.520000	 -0.745500	  0.397500	   -0.290000	   -0.250000	    0.220000	   24.578125
    7.2854	 -0.539500	 -0.750000	  0.396000	   -0.420000	   -0.160000	    0.250000	   24.570313
    7.2956	 -0.533500	 -0.741000	  0.403000	   -0.320000	    0.030000	    0.290000	   24.578125
    7.3054	 -0.542500	 -0.754500	  0.406000	   -0.210000	   -0.090000	    0.150000	   24.601563
    7.3154	 -0.518500	 -0.743500	  0.397500	   -0.750000	   -0.500000	    0.220000	   24.570313
    7.3254	 -0.539000	 -0.747000	  0.394000	   -0.360000	   -0.180000	    0.230000	   24.574219
    7.3354	 -0.532500	 -0.741000	  0.402000	   -0.160000	    0.210000	    0.160000	   24.582031
    7.3454	 -0.539500	 -0.754500	  0.404000	   -0.080000	   -0.040000	    0.250000	   24.566406
    7.3554	 -0.520000	 -0.740000	  0.397000	   -0.490000	   -0.470000	    0.260000	   24.582031
    7.3654	 -0.543000	 -0.747500	  0.396500	   -0.440000	   -0.190000	    0.290000	   24.585938
    7.3756	 -0.531500	 -0.741500	  0.406500	   -0.350000	   -0.070000	    0.260000	   24.585938
    7.3854	 -0.542000	 -0.758500	  0.409000	   -0.080000	    0.070000	    0.000000	   24.558594
    7.3954	 -0.521000	 -0.745000	  0.399500	   -0.670000	   -0.630000	    0.230000	   24.558594
    7.4054	 -0.542000	 -0.742500	  0.397000	   -0.350000	   -0.030000	    0.530000	   24.589844
    7.4154	 -0.535500	 -0.735500	  0.401500	    0.180000	    0.370000	    0.230000	   24.574219
    7.4254	 -0.539000	 -0.756000	  0.404000	   -0.060000	    0.070000	   -0.060000	   24.554688
    7.4354	 -0.515500	 -0.745500	  0.395500	   -1.030000	   -0.860000	    0.050000	   24.562500
    7.4454	 -0.536500	 -0.747500	  0.395000	   -1.070000	   -0.570000	    0.420000	   24.582031
    7.4556	 -0.528500	 -0.741000	  0.405500	   -0.100000	    0.250000	    0.200000	   24.574219
    7.4654	 -0.538000	 -0.756000	  0.408000	    0.280000	    0.320000	    0.030000	   24.585938
    7.4758	 -0.521500	 -0.747500	  0.399500	   -0.470000	   -0.230000	    0.220000	   24.589844
    7.4854	 -0.542500	 -0.747000	  0.401500	   -0.750000	   -0.540000	    0.600000	   24.589844
    7.4954	 -0.534500	 -0.736000	  0.405500	   -0.400000	   -0.240000	    0.410000	   24.558594
    7.5054	 -0.538500	 -0.753000	  0.404500	    0.060000	    0.290000	   -0.050000	   24.570313
    7.5154	 -0.519500	 -0.748000	  0.394000	   -0.430000	   -0.410000	   -0.030000	   24.574219
    7.5254	 -0.537500	 -0.746000	  0.393000	   -0.780000	   -0.420000	    0.560000	   24.574219
    7.5356	 -0.531500	 -0.738500	  0.403500	   -0.420000	   -0.050000	    0.400000	   24.578125
    7.5454	 -0.538500	 -0.750500	  0.407000	    0.090000	    0.280000	    0.090000	   24.585938
    7.5554	 -0.523000	 -0.745500	  0.400500	   -0.380000	   -0.310000	    0.250000	   24.554688
    7.5654	 -0.543500	 -0.750500	  0.398500	   -0.550000	   -0.300000	    0.240000	   24.562500
    7.5754	 -0.534000	 -0.742000	  0.405500	   -0.350000	   -0.030000	    0.360000	   24.570313
    7.5854	 -0.540000	 -0.757000	  0.407500	   -0.120000	   -0.050000	   -0.160000	   24.570313
    7.5954	 -0.519500	 -0.745500	  0.395500	   -0.550000	   -0.610000	    0.180000	   24.566406
    7.6054	 -0.542000	 -0.743500	  0.390500	   -0.450000	    0.050000	    0.680000	   24.582031
    7.6156	 -0.532500	 -0.737500	  0.399000	    0.050000	    0.410000	    0.190000	   24.578125
    7.6254	 -0.538500	 -0.754000	  0.405500	   -0.210000	    0.010000	    0.050000	   24.597656
    7.6354	 -0.518000	 -0.741000	  0.398000	   -0.830000	   -0.720000	    0.100000	   24.570313
    7.6454	 -0.540500	 -0.745000	  0.397500	   -0.860000	   -0.410000	    0.400000	   24.554688
    7.6554	 -0.533500	 -0.740000	  0.406500	    0.070000	    0.250000	    0.260000	   24.542969
    7.6654	 -0.539000	 -0.758000	  0.409500	    0.200000	    0.460000	   -0.120000	   24.562500
    7.6754	 -0.519500	 -0.749500	  0.398500	   -0.750000	   -0.610000	    0.080000	   24.578125
    7.6854	 -0.542500	 -0.751500	  0.395500	   -0.930000	   -0.590000	    0.610000	   24.570313
    7.6956	 -0.532000	 -0.736500	  0.400500	   -0.170000	    0.130000	    0.380000	   24.593750
    7.7054	 -0.540500	 -0.752000	  0.404000	    0.370000	    0.570000	    0.060000	   24.593750
    7.7154	 -0.517500	 -0.741000	  0.397000	   -0.370000	   -0.300000	    0.130000	   24.570313
    7.7254	 -0.540000	 -0.744000	  0.397000	   -1.020000	   -0.720000	    0.610000	   24.566406
    7.7354	 -0.531500	 -0.737000	  0.405500	   -0.620000	   -0.270000	    0.350000	   24.566406
    7.7455	 -0.537000	 -0.755000	  0.407000	    0.060000	    0.110000	   -0.040000	   24.566406
    7.7554	 -0.531000	 -0.749500	  0.393000	   -0.710000	   -0.340000	    0.590000	   24.582031
    7.7654	 -0.542000	 -0.751000	  0.395500	   -0.590000	   -0.200000	    0.560000	   24.582031
    7.7756	 -0.535000	 -0.742000	  0.401500	   -0.340000	    0.160000	    0.540000	   24.562500
    7.7854	 -0.540500	 -0.750000	  0.405000	   -0.010000	    0.180000	    0.210000	   24.550781
    7.7954	 -0.519500	 -0.742500	  0.397000	   -0.580000	   -0.350000	    0.180000	   24.542969
    7.8054	 -0.544000	 -0.746000	  0.397500	   -0.460000	   -0.110000	    0.240000	   24.562500
    7.8154	 -0.533500	 -0.739500	  0.403000	   -0.350000	   -0.110000	    0.360000	   24.578125
    7.8255	 -0.541000	 -0.753500	  0.406000	   -0.100000	    0.160000	    0.150000	   24.562500
    7.8354	 -0.518500	 -0.742000	  0.398000	   -0.540000	   -0.410000	    0.290000	   24.585938
    7.8454	 -0.545500	 -0.750500	  0.397500	   -0.600000	   -0.160000	    0.360000	   24.566406
    7.8556	 -0.532500	 -0.742500	  0.404500	   -0.150000	    0.150000	    0.240000	   24.578125
    7.8654	 -0.540000	 -0.757500	  0.409000	   -0.300000	   -0.060000	    0.070000	   24.585938
    7.8754	 -0.518500	 -0.741500	  0.398000	   -0.590000	   -0.580000	    0.300000	   24.570313
    7.8854	 -0.544000	 -0.743000	  0.396000	   -0.420000	   -0.040000	    0.400000	   24.550781
    7.8954	 -0.534000	 -0.736500	  0.401000	    0.110000	    0.220000	    0.440000	   24.539063
    7.9054	 -0.538000	 -0.754500	  0.403500	    0.020000	    0.180000	   -0.090000	   24.582031
    7.9154	 -0.513500	 -0.746000	  0.397000	   -0.920000	   -0.910000	   -0.070000	   24.601563
    7.9255	 -0.539500	 -0.748000	  0.396000	   -0.940000	   -0.610000	    0.450000	   24.582031
    7.9356	 -0.531500	 -0.741000	  0.404000	   -0.080000	    0.190000	    0.370000	   24.582031
    7.9454	 -0.541000	 -0.755000	  0.408500	    0.280000	    0.530000	    0.090000	   24.570313
    7.9554	 -0.520000	 -0.742000	  0.398500	   -0.440000	   -0.300000	    0.240000	   24.558594
    7.9654	 -0.544000	 -0.746500	  0.399500	   -0.940000	   -0.490000	    0.610000	   24.566406
    7.9754	 -0.534000	 -0.734500	  0.404500	   -0.450000	   -0.160000	    0.330000	   24.566406
    7.9854	 -0.536500	 -0.753000	  0.403000	    0.260000	    0.360000	   -0.290000	   24.578125
    7.9954	 -0.516000	 -0.748500	  0.394500	   -0.470000	   -0.330000	   -0.110000	   24.585938
    8.0054	 -0.537000	 -0.747500	  0.394500	   -0.870000	   -0.550000	    0.560000	   24.593750
    8.0156	 -0.531000	 -0.739000	  0.403500	   -0.380000	    0.020000	    0.520000	   24.585938
    8.0255	 -0.540000	 -0.752500	  0.406500	    0.080000	    0.330000	    0.260000	   24.574219
    8.0354	 -0.520000	 -0.745500	  0.399500	   -0.410000	   -0.270000	    0.200000	   24.589844
    8.0454	 -0.544000	 -0.751000	  0.399500	   -0.770000	   -0.400000	    0.300000	   24.582031
    8.0554	 -0.534500	 -0.741000	  0.405500	   -0.510000	   -0.370000	    0.240000	   24.578125
    8.0654	 -0.538000	 -0.754500	  0.404000	   -0.290000	    0.050000	    0.070000	   24.574219
    8.0754	 -0.518500	 -0.743000	  0.393500	   -0.210000	   -0.150000	    0.320000	   24.582031
    8.0854	 -0.541000	 -0.745500	  0.393000	   -0.310000	    0.040000	    0.430000	   24.562500
    8.0956	 -0.530500	 -0.735500	  0.400000	   -0.350000	    0.090000	    0.380000	   24.574219
    8.1054	 -0.539500	 -0.751500	  0.405500	   -0.450000	   -0.170000	   -0.020000	   24.585938
    8.1154	 -0.516000	 -0.739500	  0.399000	   -0.960000	   -0.620000	    0.120000	   24.578125
    8.1255	 -0.544500	 -0.747500	  0.399500	   -0.570000	   -0.190000	    0.370000	   24.570313
    8.1354	 -0.533500	 -0.741000	  0.405500	   -0.070000	    0.130000	    0.220000	   24.566406
    8.1454	 -0.540500	 -0.759500	  0.407000	    0.030000	    0.200000	   -0.070000	   24.574219
    8.1554	 -0.518000	 -0.746000	  0.395000	   -0.830000	   -0.510000	    0.200000	   24.570313
    8.1654	 -0.543000	 -0.748000	  0.391500	   -0.840000	   -0.230000	    0.530000	   24.554688
    8.1757	 -0.531000	 -0.737500	  0.399500	   -0.040000	    0.180000	    0.390000	   24.574219
    8.1854	 -0.538500	 -0.755500	  0.405000	    0.030000	    0.320000	   -0.090000	   24.570313
    8.1954	 -0.516000	 -0.742500	  0.396500	   -0.710000	   -0.610000	    0.170000	   24.605469
    8.2054	 -0.539000	 -0.744000	  0.399500	   -0.920000	   -0.370000	    0.490000	   24.585938
    8.2154	 -0.531500	 -0.735000	  0.407500	   -0.190000	    0.080000	    0.380000	   24.585938
    8.2255	 -0.539000	 -0.757000	  0.408000	    0.220000	    0.450000	   -0.150000	   24.613281
    8.2354	 -0.520000	 -0.752500	  0.398500	   -0.440000	   -0.430000	   -0.140000	   24.601563
    8.2454	 -0.543000	 -0.754000	  0.395500	   -0.940000	   -0.540000	    0.620000	   24.570313
    8.2557	 -0.533000	 -0.738500	  0.401500	   -0.380000	   -0.050000	    0.710000	   24.574219
    8.2654	 -0.542000	 -0.749500	  0.401000	    0.280000	    0.500000	    0.220000	   24.570313
    8.2755	 -0.522500	 -0.742500	  0.395500	   -0.230000	    0.010000	   -0.040000	   24.554688
    8.2854	 -0.540000	 -0.743500	  0.394500	   -0.890000	   -0.580000	    0.490000	   24.578125
    8.2954	 -0.534500	 -0.736000	  0.402000	   -0.680000	   -0.260000	    0.180000	   24.562500
    8.3054	 -0.538000	 -0.753000	  0.405000	   -0.210000	    0.020000	    0.020000	   24.562500
    8.3154	 -0.521500	 -0.748000	  0.394000	   -0.390000	   -0.240000	    0.260000	   24.570313
    8.3255	 -0.544500	 -0.751000	  0.394000	   -0.290000	   -0.030000	    0.380000	   24.578125
    8.3356	 -0.533500	 -0.739500	  0.403000	   -0.260000	    0.240000	    0.300000	   24.570313
    8.3454	 -0.540000	 -0.753000	  0.404500	   -0.450000	   -0.160000	    0.000000	   24.585938
    8.3554	 -0.521000	 -0.743000	  0.394500	   -0.660000	   -0.550000	    0.060000	   24.609375
    8.3655	 -0.540500	 -0.744500	  0.391000	   -0.310000	   -0.130000	    0.340000	   24.570313
    8.3754	 -0.532500	 -0.738000	  0.401500	   -0.030000	    0.360000	    0.260000	   24.558594
    8.3855	 -0.536500	 -0.753500	  0.406000	   -0.280000	    0.060000	   -0.170000	   24.562500
    8.3954	 -0.517000	 -0.747500	  0.398000	   -0.990000	   -0.790000	    0.010000	   24.570313
    8.4055	 -0.537500	 -0.748000	  0.394000	   -0.940000	   -0.440000	    0.470000	   24.566406
    8.4157	 -0.533500	 -0.741500	  0.404000	    0.030000	    0.300000	    0.420000	   24.570313
    8.4255	 -0.539500	 -0.755000	  0.407500	    0.410000	    0.540000	   -0.050000	   24.585938
    8.4354	 -0.518500	 -0.743000	  0.399000	   -0.540000	   -0.350000	    0.170000	   24.589844
    8.4455	 -0.542000	 -0.746000	  0.396000	   -0.850000	   -0.540000	    0.560000	   24.570313
    8.4554	 -0.535000	 -0.735500	  0.401000	   -0.320000	   -0.080000	    0.290000	   24.562500
    8.4655	 -0.534500	 -0.751000	  0.402500	    0.150000	    0.350000	   -0.200000	   24.562500
    8.4758	 -0.517000	 -0.748000	  0.395500	   -0.330000	   -0.490000	   -0.110000	   24.605469
    8.4855	 -0.536000	 -0.745500	  0.393500	   -0.890000	   -0.670000	    0.600000	   24.585938
    8.4957	 -0.531500	 -0.739500	  0.402000	   -0.490000	    0.030000	    0.560000	   24.585938
    8.5055	 -0.537500	 -0.751500	  0.407500	    0.230000	    0.260000	    0.090000	   24.585938
    8.5154	 -0.522000	 -0.749000	  0.402000	   -0.280000	   -0.150000	   -0.060000	   24.554688
    8.5255	 -0.540000	 -0.752500	  0.398000	   -0.800000	   -0.400000	    0.470000	   24.589844
    8.5355	 -0.531500	 -0.739000	  0.404000	   -0.350000	   -0.250000	    0.350000	   24.605469
    8.5455	 -0.540000	 -0.754500	  0.407000	    0.110000	    0.160000	    0.000000	   24.578125
    8.5555	 -0.517000	 -0.741500	  0.393500	   -0.220000	   -0.330000	    0.290000	   24.585938
    8.5655	 -0.540000	 -0.744000	  0.392000	   -0.320000	   -0.150000	    0.530000	   24.578125
    8.5757	 -0.531500	 -0.739500	  0.402000	   -0.310000	   -0.060000	    0.320000	   24.589844
    8.5855	 -0.537500	 -0.753500	  0.407000	   -0.380000	   -0.130000	    0.100000	   24.589844
    8.5955	 -0.517500	 -0.743000	  0.402000	   -0.750000	   -0.600000	    0.280000	   24.582031
    8.6055	 -0.541500	 -0.752000	  0.400500	   -0.480000	   -0.130000	    0.370000	   24.562500
    8.6155	 -0.532000	 -0.741000	  0.404000	    0.020000	    0.170000	    0.450000	   24.566406
    8.6255	 -0.539500	 -0.755000	  0.407000	    0.050000	    0.260000	    0.040000	   24.574219
    8.6355	 -0.519000	 -0.747500	  0.396500	   -0.730000	   -0.470000	    0.160000	   24.570313
    8.6455	 -0.541500	 -0.747000	  0.392500	   -0.830000	   -0.480000	    0.500000	   24.574219
    8.6557	 -0.531500	 -0.737000	  0.399000	   -0.050000	    0.250000	    0.310000	   24.570313
    8.6656	 -0.538000	 -0.752000	  0.403000	    0.180000	    0.360000	    0.110000	   24.585938
    8.6755	 -0.532500	 -0.740500	  0.396000	   -0.980000	   -0.580000	    0.620000	   24.566406
    8.6855	 -0.542000	 -0.744000	  0.400000	   -0.890000	   -0.470000	    0.470000	   24.574219
    8.6955	 -0.533500	 -0.739500	  0.405500	   -0.290000	   -0.090000	    0.310000	   24.601563
    8.7055	 -0.538500	 -0.758000	  0.406000	    0.100000	    0.320000	   -0.130000	   24.589844
    8.7155	 -0.518500	 -0.751000	  0.396500	   -0.510000	   -0.510000	    0.110000	   24.593750
    8.7255	 -0.542500	 -0.750000	  0.394500	   -0.730000	   -0.360000	    0.660000	   24.585938
    8.7357	 -0.532500	 -0.737500	  0.399500	   -0.170000	    0.110000	    0.630000	   24.597656
    8.7455	 -0.541500	 -0.753000	  0.402000	    0.170000	    0.440000	    0.250000	   24.589844
    8.7555	 -0.518500	 -0.743000	  0.396500	   -0.500000	   -0.290000	    0.170000	   24.578125
    8.7655	 -0.540500	 -0.745500	  0.397000	   -0.790000	   -0.450000	    0.490000	   24.585938
    8.7755	 -0.533000	 -0.741000	  0.404500	   -0.420000	   -0.100000	    0.270000	   24.570313
    8.7855	 -0.541500	 -0.751000	  0.407000	   -0.010000	    0.220000	    0.150000	   24.585938
    8.7955	 -0.524500	 -0.747500	  0.397500	   -0.300000	   -0.130000	    0.300000	   24.578125
    8.8055	 -0.549500	 -0.751000	  0.397500	   -0.290000	   -0.040000	    0.330000	   24.558594
    8.8157	 -0.534000	 -0.738000	  0.402500	   -0.270000	    0.020000	    0.480000	   24.582031
    8.8255	 -0.545000	 -0.754500	  0.407000	   -0.260000	   -0.180000	    0.050000	   24.582031
    8.8355	 -0.519500	 -0.740500	  0.395000	   -0.680000	   -0.630000	    0.390000	   24.570313
    8.8455	 -0.541500	 -0.741500	  0.394500	   -0.490000	    0.070000	    0.310000	   24.574219
    8.8555	 -0.533000	 -0.740000	  0.401500	   -0.010000	    0.340000	    0.280000	   24.589844
    8.8655	 -0.538500	 -0.755500	  0.406500	   -0.110000	   -0.030000	   -0.120000	   24.585938
    8.8755	 -0.517500	 -0.748000	  0.400000	   -0.910000	   -0.930000	    0.150000	   24.585938
    8.8855	 -0.542000	 -0.754500	  0.397500	   -0.800000	   -0.300000	    0.330000	   24.582031
    8.8957	 -0.530500	 -0.741000	  0.404500	   -0.060000	    0.360000	    0.200000	   24.570313
    8.9055	 -0.542000	 -0.754000	  0.408500	    0.270000	    0.470000	    0.140000	   24.589844
    8.9155	 -0.522500	 -0.742500	  0.398500	   -0.430000	   -0.390000	    0.370000	   24.589844
    8.9255	 -0.544000	 -0.740500	  0.397000	   -0.810000	   -0.620000	    0.630000	   24.585938
    8.9355	 -0.536000	 -0.735500	  0.401000	   -0.220000	   -0.040000	    0.190000	   24.574219
    8.9455	 -0.537000	 -0.752500	  0.405500	   -0.120000	    0.140000	   -0.190000	   24.582031
    8.9555	 -0.520500	 -0.748000	  0.396500	   -0.580000	   -0.600000	   -0.150000	   24.589844
    8.9655	 -0.539000	 -0.746000	  0.393500	   -0.830000	   -0.580000	    0.550000	   24.601563
    8.9757	 -0.534500	 -0.740500	  0.403500	   -0.190000	    0.020000	    0.600000	   24.585938
    8.9855	 -0.540500	 -0.755500	  0.407500	    0.120000	    0.280000	   -0.040000	   24.570313
    8.9955	 -0.521000	 -0.749500	  0.400000	   -0.490000	   -0.490000	    0.070000	   24.601563
    9.0055	 -0.544000	 -0.749000	  0.397500	   -0.870000	   -0.570000	    0.460000	   24.582031
    9.0155	 -0.534500	 -0.738500	  0.401500	   -0.360000	   -0.040000	    0.410000	   24.554688
    9.0255	 -0.539000	 -0.753500	  0.403000	    0.230000	    0.280000	    0.000000	   24.566406
    9.0355	 -0.519000	 -0.742500	  0.394000	   -0.310000	   -0.380000	    0.080000	   24.589844
    9.0455	 -0.540000	 -0.743000	  0.393500	   -0.770000	   -0.300000	    0.500000	   24.589844
    9.0557	 -0.533000	 -0.738000	  0.402500	   -0.540000	   -0.160000	    0.180000	   24.562500
    9.0655	 -0.538000	 -0.754000	  0.408500	   -0.220000	   -0.230000	   -0.080000	   24.546875
    9.0755	 -0.521000	 -0.748500	  0.402500	   -0.540000	   -0.500000	   -0.070000	   24.582031
    9.0855	 -0.541500	 -0.750000	  0.398500	   -0.460000	   -0.120000	    0.360000	   24.589844
    9.0955	 -0.531000	 -0.737000	  0.405000	   -0.100000	    0.190000	    0.450000	   24.558594
    9.1055	 -0.541000	 -0.754500	  0.407000	   -0.020000	    0.240000	   -0.120000	   24.566406
    9.1155	 -0.515500	 -0.747500	  0.397000	   -0.750000	   -0.690000	   -0.080000	   24.585938
    9.1255	 -0.539000	 -0.748000	  0.392500	   -0.970000	   -0.510000	    0.490000	   24.578125
    9.1357	 -0.528500	 -0.740000	  0.400000	   -0.290000	    0.100000	    0.350000	   24.570313
    9.1455	 -0.536000	 -0.752000	  0.405000	    0.340000	    0.360000	    0.120000	   24.601563
    9.1555	 -0.518500	 -0.739500	  0.399000	   -0.400000	   -0.370000	    0.180000	   24.578125
    9.1655	 -0.541500	 -0.744500	  0.397500	   -0.700000	   -0.570000	    0.590000	   24.566406
    9.1755	 -0.537000	 -0.739500	  0.406500	   -0.420000	   -0.070000	    0.190000	   24.558594
    9.1855	 -0.535500	 -0.756500	  0.407500	   -0.080000	    0.050000	   -0.280000	   24.582031
    9.1955	 -0.521000	 -0.751000	  0.397000	   -0.410000	   -0.560000	   -0.040000	   24.601563
    9.2055	 -0.539500	 -0.747000	  0.392000	   -0.600000	   -0.310000	    0.560000	   24.582031
    9.2157	 -0.534500	 -0.738500	  0.398000	   -0.090000	    0.190000	    0.490000	   24.558594
    9.2255	 -0.536500	 -0.749500	  0.403000	    0.050000	    0.330000	    0.090000	   24.582031
    9.2355	 -0.517000	 -0.744000	  0.397000	   -0.670000	   -0.570000	   -0.080000	   24.566406
    9.2455	 -0.538500	 -0.746500	  0.396000	   -0.940000	   -0.570000	    0.490000	   24.582031
    9.2555	 -0.533500	 -0.742000	  0.405500	   -0.340000	   -0.180000	    0.240000	   24.574219
    9.2655	 -0.538500	 -0.757000	  0.408000	    0.280000	    0.330000	   -0.020000	   24.570313
    9.2755	 -0.519500	 -0.750000	  0.397500	   -0.430000	   -0.160000	    0.020000	   24.570313
    9.2855	 -0.543000	 -0.751000	  0.396000	   -0.650000	   -0.420000	    0.620000	   24.582031
    9.2957	 -0.532500	 -0.737000	  0.402000	   -0.280000	   -0.050000	    0.400000	   24.582031
    9.3055	 -0.540500	 -0.753000	  0.404500	   -0.090000	    0.320000	   -0.040000	   24.570313
    9.3155	 -0.516500	 -0.742500	  0.396000	   -0.440000	   -0.440000	    0.020000	   24.570313
    9.3255	 -0.539000	 -0.742500	  0.394000	   -0.570000	   -0.130000	    0.480000	   24.570313
    9.3355	 -0.533500	 -0.737500	  0.402500	   -0.200000	    0.070000	    0.410000	   24.578125
    9.3455	 -0.535500	 -0.754500	  0.407000	   -0.010000	    0.190000	   -0.170000	   24.582031
    9.3555	 -0.516500	 -0.749000	  0.399000	   -0.680000	   -0.620000	   -0.080000	   24.562500
    9.3655	 -0.541500	 -0.756000	  0.396000	   -0.850000	   -0.280000	    0.350000	   24.562500
    9.3757	 -0.529000	 -0.742000	  0.403500	   -0.260000	    0.090000	    0.530000	   24.593750
    9.3855	 -0.542500	 -0.754000	  0.406000	    0.190000	    0.390000	    0.270000	   24.593750
    9.3955	 -0.517500	 -0.742000	  0.397000	   -0.220000	   -0.140000	    0.300000	   24.601563
    9.4055	 -0.541500	 -0.741500	  0.395000	   -0.690000	   -0.440000	    0.700000	   24.585938
    9.4155	 -0.533000	 -0.736500	  0.402000	   -0.420000	   -0.300000	    0.370000	   24.589844
    9.4255	 -0.536500	 -0.753000	  0.406000	   -0.200000	    0.000000	   -0.090000	   24.574219
    9.4355	 -0.517000	 -0.748500	  0.397500	   -0.590000	   -0.400000	    0.010000	   24.582031
    9.4455	 -0.539500	 -0.750500	  0.393500	   -0.530000	   -0.270000	    0.600000	   24.582031
    9.4557	 -0.533000	 -0.742500	  0.403500	   -0.140000	    0.130000	    0.560000	   24.578125
    9.4655	 -0.540500	 -0.753000	  0.407000	    0.170000	    0.270000	    0.250000	   24.578125
    9.4759	 -0.521000	 -0.747000	  0.398000	   -0.400000	   -0.400000	    0.400000	   24.570313
    9.4855	 -0.544000	 -0.747000	  0.396000	   -0.620000	   -0.330000	    0.440000	   24.554688
    9.4955	 -0.534500	 -0.737000	  0.401000	   -0.270000	    0.000000	    0.260000	   24.574219
    9.5055	 -0.538500	 -0.756500	  0.402500	    0.020000	    0.080000	    0.100000	   24.589844
    9.5155	 -0.517000	 -0.740500	  0.393500	   -0.520000	   -0.400000	    0.400000	   24.574219
    9.5256	 -0.544000	 -0.745000	  0.394000	   -0.370000	   -0.060000	    0.670000	   24.585938
    9.5357	 -0.532000	 -0.739000	  0.404000	   -0.220000	    0.110000	    0.260000	   24.601563
    9.5455	 -0.541500	 -0.756500	  0.407500	   -0.340000	   -0.200000	    0.070000	   24.570313
    9.5555	 -0.518500	 -0.744000	  0.397500	   -0.670000	   -0.530000	    0.190000	   24.589844
    9.5655	 -0.544500	 -0.747000	  0.398500	   -0.400000	   -0.090000	    0.520000	   24.601563
    9.5755	 -0.533000	 -0.739000	  0.403000	    0.020000	    0.300000	    0.530000	   24.585938
    9.5855	 -0.540500	 -0.754500	  0.404000	    0.020000	    0.340000	   -0.170000	   24.585938
    9.5955	 -0.515500	 -0.746000	  0.395000	   -0.730000	   -0.510000	   -0.060000	   24.562500
    9.6055	 -0.539500	 -0.749000	  0.395000	   -0.910000	   -0.530000	    0.580000	   24.570313
    9.6157	 -0.529500	 -0.739500	  0.403000	   -0.320000	    0.070000	    0.490000	   24.570313
    9.6256	 -0.539000	 -0.753000	  0.406500	    0.130000	    0.330000	    0.070000	   24.558594
    9.6355	 -0.519000	 -0.741000	  0.399500	   -0.360000	   -0.120000	    0.380000	   24.562500
    9.6455	 -0.546000	 -0.746500	  0.401000	   -0.680000	   -0.320000	    0.620000	   24.601563
    9.6555	 -0.536500	 -0.738500	  0.406500	   -0.430000	   -0.120000	    0.280000	   24.593750
    9.6655	 -0.540000	 -0.757500	  0.406000	   -0.170000	    0.000000	   -0.050000	   24.601563
    9.6755	 -0.520500	 -0.747000	  0.394000	   -0.590000	   -0.450000	    0.230000	   24.585938
    9.6855	 -0.542000	 -0.744500	  0.392000	   -0.250000	   -0.010000	    0.520000	   24.570313
    9.6957	 -0.534500	 -0.739000	  0.400000	   -0.090000	    0.250000	    0.430000	   24.582031
    9.7055	 -0.540000	 -0.752500	  0.405000	   -0.120000	   -0.060000	    0.060000	   24.589844
    9.7155	 -0.519000	 -0.742500	  0.399000	   -0.750000	   -0.720000	    0.250000	   24.582031
    9.7256	 -0.542000	 -0.747500	  0.399000	   -0.660000	   -0.290000	    0.400000	   24.558594
    9.7356	 -0.534500	 -0.742500	  0.406000	   -0.130000	    0.140000	    0.320000	   24.554688
    9.7455	 -0.540500	 -0.757000	  0.408000	    0.110000	    0.150000	   -0.180000	   24.554688
    9.7555	 -0.520000	 -0.741500	  0.395000	   -0.720000	   -0.470000	    0.390000	   24.574219
    9.7655	 -0.539500	 -0.739000	  0.398000	   -0.280000	    0.180000	    0.160000	   24.589844
    9.7758	 -0.534500	 -0.735500	  0.399500	   -0.210000	    0.270000	    0.190000	   24.589844
    9.7855	 -0.540000	 -0.756000	  0.403500	   -0.130000	    0.060000	   -0.160000	   24.574219
    9.7955	 -0.517500	 -0.742000	  0.395500	   -0.910000	   -0.640000	    0.200000	   24.550781
    9.8055	 -0.545500	 -0.745000	  0.400000	   -0.490000	   -0.220000	    0.520000	   24.589844
    9.8155	 -0.532000	 -0.736500	  0.405500	   -0.010000	    0.230000	    0.360000	   24.589844
    9.8256	 -0.540500	 -0.756500	  0.407000	    0.070000	    0.290000	   -0.220000	   24.554688
    9.8355	 -0.518500	 -0.750000	  0.399500	   -0.680000	   -0.740000	    0.140000	   24.562500
    9.8455	 -0.545000	 -0.754000	  0.397000	   -0.850000	   -0.430000	    0.460000	   24.585938
    9.8557	 -0.530500	 -0.740000	  0.403500	   -0.250000	   -0.030000	    0.500000	   24.601563
    9.8655	 -0.540000	 -0.753000	  0.404000	    0.340000	    0.380000	   -0.010000	   24.613281
    9.8755	 -0.520000	 -0.741500	  0.395000	   -0.220000	   -0.140000	    0.210000	   24.589844
    9.8855	 -0.543000	 -0.742500	  0.396000	   -0.630000	   -0.480000	    0.610000	   24.582031
    9.8955	 -0.533000	 -0.735000	  0.403500	   -0.480000	   -0.350000	    0.390000	   24.578125
    9.9055	 -0.536000	 -0.751000	  0.406000	   -0.190000	   -0.140000	   -0.390000	   24.578125
    9.9155	 -0.518500	 -0.748000	  0.398000	   -0.520000	   -0.520000	   -0.020000	   24.597656
    9.9256	 -0.541500	 -0.749000	  0.394500	   -0.730000	   -0.160000	    0.470000	   24.593750
    9.9357	 -0.535000	 -0.740000	  0.402000	   -0.110000	    0.170000	    0.400000	   24.578125
    9.9455	 -0.541000	 -0.756000	  0.405500	    0.020000	    0.120000	    0.100000	   24.578125
    9.9555	 -0.520500	 -0.744500	  0.396000	   -0.690000	   -0.560000	    0.310000	   24.582031
    9.9655	 -0.543000	 -0.744000	  0.394500	   -0.590000	   -0.300000	    0.410000	   24.609375
    9.9755	 -0.534500	 -0.739500	  0.401000	   -0.050000	    0.050000	    0.070000	   24.585938
    9.9855	 -0.535000	 -0.754500	  0.404000	   -0.110000	   -0.040000	    0.000000	   24.566406
    9.9955	 -0.517000	 -0.742000	  0.395500	   -0.600000	   -0.530000	    0.120000	   24.570313
   10.0055	 -0.542000	 -0.746500	  0.397000	   -0.520000	   -0.260000	    0.420000	   24.558594
   10.0158	 -0.532000	 -0.739500	  0.404500	   -0.040000	    0.230000	    0.240000	   24.542969
   10.0256	 -0.540500	 -0.757000	  0.408500	   -0.150000	    0.170000	   -0.070000	   24.546875
   10.0355	 -0.519000	 -0.748000	  0.398000	   -0.770000	   -0.610000	    0.080000	   24.550781
   10.0455	 -0.543000	 -0.746000	  0.398000	   -0.540000	   -0.280000	    0.650000	   24.558594
   10.0555	 -0.535000	 -0.734500	  0.402000	    0.100000	    0.110000	    0.390000	   24.593750
   10.0655	 -0.539000	 -0.753500	  0.403500	    0.170000	    0.370000	   -0.230000	   24.609375
   10.0755	 -0.516000	 -0.747000	  0.394000	   -0.740000	   -0.650000	   -0.060000	   24.582031
   10.0855	 -0.539000	 -0.748000	  0.395000	   -1.050000	   -0.780000	    0.420000	   24.578125
   10.0958	 -0.529000	 -0.739500	  0.402500	   -0.450000	   -0.120000	    0.320000	   24.562500
   10.1055	 -0.537000	 -0.752000	  0.406500	    0.240000	    0.350000	    0.110000	   24.566406
   10.1155	 -0.520500	 -0.744000	  0.399500	   -0.110000	   -0.040000	    0.320000	   24.570313
   10.1256	 -0.546000	 -0.748500	  0.400000	   -0.560000	   -0.300000	    0.440000	   24.562500
   10.1355	 -0.533500	 -0.739000	  0.405500	   -0.690000	   -0.370000	    0.320000	   24.570313
   10.1455	 -0.538500	 -0.756000	  0.405000	   -0.230000	   -0.070000	   -0.100000	   24.582031
   10.1555	 -0.516000	 -0.748500	  0.394500	   -0.620000	   -0.450000	    0.050000	   24.585938
   10.1656	 -0.540000	 -0.746000	  0.392000	   -0.280000	   -0.100000	    0.510000	   24.597656
   10.1758	 -0.531500	 -0.739000	  0.399000	   -0.070000	    0.240000	    0.560000	   24.585938
   10.1856	 -0.538500	 -0.748500	  0.404500	   -0.050000	    0.030000	    0.020000	   24.570313
   10.1956	 -0.518000	 -0.742500	  0.399500	   -0.750000	   -0.610000	    0.220000	   24.566406
   10.2056	 -0.544500	 -0.751500	  0.400000	   -0.940000	   -0.430000	    0.280000	   24.574219
   10.2155	 -0.533000	 -0.741000	  0.405500	   -0.290000	    0.080000	    0.180000	   24.597656
   10.2256	 -0.537500	 -0.755500	  0.406500	    0.160000	    0.150000	   -0.010000	   24.585938
   10.2356	 -0.519500	 -0.742500	  0.396500	   -0.450000	   -0.300000	    0.500000	   24.582031
   10.2456	 -0.545000	 -0.742000	  0.393000	   -0.500000	    0.020000	    0.670000	   24.570313
   10.2558	 -0.533500	 -0.734500	  0.399000	   -0.210000	    0.050000	    0.180000	   24.570313
   10.2656	 -0.537000	 -0.756500	  0.403000	   -0.370000	   -0.040000	   -0.190000	   24.585938
   10.2756	 -0.512500	 -0.741000	  0.396000	   -1.020000	   -0.770000	    0.060000	   24.597656
   10.2856	 -0.540000	 -0.744000	  0.398500	   -0.460000	   -0.230000	    0.440000	   24.582031
   10.2956	 -0.532000	 -0.738000	  0.403500	   -0.060000	    0.410000	    0.400000	   24.582031
   10.3056	 -0.540000	 -0.756500	  0.406500	    0.180000	    0.320000	   -0.070000	   24.582031
   10.3156	 -0.519500	 -0.751000	  0.398500	   -0.520000	   -0.510000	    0.110000	   24.589844
   10.3256	 -0.543000	 -0.753000	  0.398500	   -0.960000	   -0.670000	    0.350000	   24.574219
   10.3358	 -0.530000	 -0.738000	  0.402000	   -0.140000	    0.140000	    0.470000	   24.578125
   10.3456	 -0.543000	 -0.753000	  0.403500	    0.320000	    0.660000	    0.070000	   24.593750
   10.3556	 -0.517000	 -0.739000	  0.394000	   -0.280000	   -0.280000	    0.370000	   24.597656
   10.3656	 -0.542500	 -0.742000	  0.396000	   -0.710000	   -0.440000	    0.670000	   24.601563
   10.3756	 -0.533500	 -0.735500	  0.405000	   -0.550000	   -0.150000	    0.340000	   24.578125
   10.3856	 -0.538000	 -0.755000	  0.406000	   -0.130000	   -0.040000	   -0.150000	   24.574219
   10.3956	 -0.519500	 -0.753500	  0.398000	   -0.690000	   -0.500000	    0.040000	   24.601563
   10.4056	 -0.542000	 -0.754000	  0.393500	   -0.440000	   -0.300000	    0.410000	   24.609375
   10.4158	 -0.531000	 -0.740500	  0.401500	   -0.160000	    0.210000	    0.520000	   24.582031
   10.4256	 -0.543500	 -0.755000	  0.406000	    0.180000	    0.160000	    0.090000	   24.597656
   10.4356	 -0.519000	 -0.743000	  0.395500	   -0.500000	   -0.470000	    0.310000	   24.589844
   10.4456	 -0.542000	 -0.744500	  0.395500	   -0.550000	   -0.410000	    0.360000	   24.585938
   10.4556	 -0.531000	 -0.739000	  0.402000	   -0.380000	   -0.130000	    0.280000	   24.589844
   10.4656	 -0.539000	 -0.755000	  0.406000	   -0.280000	   -0.030000	    0.170000	   24.574219
   10.4760	 -0.520500	 -0.745500	  0.397000	   -0.540000	   -0.380000	    0.280000	   24.582031
   10.4856	 -0.545000	 -0.749500	  0.397000	   -0.430000	   -0.040000	    0.420000	   24.574219
   10.4958	 -0.531500	 -0.738500	  0.403500	   -0.040000	    0.270000	    0.350000	   24.566406
   10.5056	 -0.542000	 -0.755500	  0.410000	   -0.030000	   -0.020000	   -0.030000	   24.570313
   10.5156	 -0.520500	 -0.742500	  0.399000	   -0.810000	   -0.710000	    0.270000	   24.582031
   10.5256	 -0.544000	 -0.742000	  0.397000	   -0.520000	   -0.250000	    0.500000	   24.585938
   10.5356	 -0.532500	 -0.736000	  0.401000	    0.180000	    0.400000	    0.350000	   24.582031
   10.5456	 -0.538500	 -0.757500	  0.404000	    0.120000	    0.160000	   -0.170000	   24.566406
   10.5556	 -0.516000	 -0.749000	  0.395500	   -0.950000	   -0.790000	   -0.060000	   24.589844
   10.5656	 -0.539000	 -0.750000	  0.397500	   -0.960000	   -0.640000	    0.410000	   24.570313
   10.5758	 -0.529500	 -0.739500	  0.404000	   -0.130000	    0.280000	    0.410000	   24.574219
   10.5856	 -0.540500	 -0.754000	  0.408500	    0.310000	    0.570000	    0.120000	   24.589844
   10.5956	 -0.523000	 -0.747500	  0.400500	   -0.400000	   -0.300000	    0.080000	   24.597656
   10.6056	 -0.544500	 -0.749500	  0.400000	   -0.890000	   -0.550000	    0.580000	   24.582031
   10.6156	 -0.534000	 -0.735500	  0.405500	   -0.510000	   -0.360000	    0.400000	   24.578125
   10.6256	 -0.539500	 -0.751500	  0.403500	    0.010000	    0.320000	   -0.190000	   24.570313
   10.6356	 -0.519000	 -0.747000	  0.393000	   -0.340000	   -0.260000	    0.060000	   24.566406
   10.6456	 -0.541000	 -0.746500	  0.392500	   -0.550000	   -0.280000	    0.540000	   24.589844
   10.6558	 -0.532000	 -0.739000	  0.400000	   -0.400000	   -0.070000	    0.500000	   24.613281
   10.6656	 -0.536500	 -0.750000	  0.404000	   -0.080000	    0.000000	    0.050000	   24.585938
   10.6756	 -0.519000	 -0.746000	  0.398500	   -0.500000	   -0.330000	    0.150000	   24.578125
   10.6857	 -0.543000	 -0.750500	  0.397000	   -0.510000	   -0.160000	    0.390000	   24.593750
   10.6956	 -0.537000	 -0.751000	  0.405500	   -0.130000	    0.120000	    0.310000	   24.601563
   10.7056	 -0.540000	 -0.756000	  0.404500	   -0.100000	    0.040000	    0.090000	   24.601563
   10.7156	 -0.518500	 -0.741000	  0.393000	   -0.540000	   -0.440000	    0.280000	   24.570313
   10.7256	 -0.543500	 -0.745500	  0.389000	   -0.350000	   -0.130000	    0.370000	   24.582031
   10.7358	 -0.530000	 -0.736500	  0.396000	   -0.100000	    0.150000	    0.290000	   24.585938
   10.7456	 -0.537500	 -0.752500	  0.404500	   -0.370000	   -0.180000	    0.060000	   24.562500
   10.7556	 -0.518500	 -0.741500	  0.396500	   -0.890000	   -0.610000	    0.200000	   24.574219
   10.7656	 -0.545000	 -0.747000	  0.398500	   -0.450000	   -0.270000	    0.460000	   24.578125
   10.7756	 -0.532500	 -0.736500	  0.403500	    0.010000	    0.330000	    0.350000	   24.589844
   10.7856	 -0.542000	 -0.757000	  0.409000	    0.110000	    0.220000	   -0.110000	   24.585938
   10.7956	 -0.520000	 -0.753000	  0.400000	   -0.770000	   -0.650000	   -0.040000	   24.582031
   10.8056	 -0.540500	 -0.748500	  0.396000	   -0.730000	   -0.510000	    0.400000	   24.593750
   10.8158	 -0.530500	 -0.735000	  0.398500	    0.040000	    0.290000	    0.360000	   24.593750
   10.8256	 -0.545500	 -0.758500	  0.403500	    0.500000	    0.590000	    0.030000	   24.574219
   10.8356	 -0.519000	 -0.739000	  0.394000	   -0.330000	   -0.470000	    0.380000	   24.585938
   10.8456	 -0.539500	 -0.737500	  0.398500	   -0.750000	   -0.570000	    0.400000	   24.601563
   10.8556	 -0.531500	 -0.737500	  0.408500	   -0.370000	   -0.390000	    0.230000	   24.582031
   10.8656	 -0.536500	 -0.754500	  0.408000	   -0.140000	   -0.110000	   -0.160000	   24.589844
   10.8756	 -0.522500	 -0.752500	  0.400500	   -0.400000	   -0.530000	   -0.030000	   24.597656
   10.8856	 -0.539500	 -0.751500	  0.398500	   -0.320000	   -0.240000	    0.240000	   24.585938
   10.8958	 -0.531500	 -0.739000	  0.401000	   -0.150000	    0.180000	    0.540000	   24.593750
   10.9056	 -0.541000	 -0.747500	  0.403500	    0.170000	    0.060000	    0.220000	   24.597656
   10.9156	 -0.526000	 -0.748500	  0.396500	   -0.360000	   -0.410000	    0.220000	   24.589844
   10.9256	 -0.539000	 -0.744000	  0.394000	   -0.670000	   -0.530000	    0.360000	   24.589844
   10.9356	 -0.533500	 -0.739500	  0.403500	   -0.430000	   -0.140000	    0.070000	   24.597656
   10.9456	 -0.536500	 -0.751000	  0.408500	    0.090000	    0.140000	    0.040000	   24.601563
   10.9556	 -0.523500	 -0.745500	  0.397000	   -0.480000	   -0.460000	    0.350000	   24.589844
   10.9656	 -0.544500	 -0.748500	  0.398000	   -0.460000	   -0.360000	    0.400000	   24.589844
   10.9758	 -0.531500	 -0.740000	  0.405000	    0.060000	    0.190000	    0.110000	   24.585938
   10.9856	 -0.538500	 -0.757500	  0.410500	   -0.260000	   -0.240000	    0.030000	   24.578125
   10.9956	 -0.521000	 -0.745500	  0.399000	   -0.770000	   -0.820000	    0.400000	   24.597656
   11.0056	 -0.541500	 -0.742500	  0.394500	   -0.340000	    0.070000	    0.440000	   24.582031
   11.0156	 -0.531500	 -0.737000	  0.402000	    0.140000	    0.440000	    0.260000	   24.593750
   11.0256	 -0.537500	 -0.755500	  0.405500	   -0.110000	    0.120000	   -0.130000	   24.601563
   11.0356	 -0.516000	 -0.745500	  0.396500	   -1.050000	   -0.880000	    0.090000	   24.597656
   11.0456	 -0.539500	 -0.746000	  0.398500	   -0.830000	   -0.520000	    0.380000	   24.582031
   11.0558	 -0.531500	 -0.741000	  0.406000	    0.030000	    0.400000	    0.420000	   24.585938
   11.0656	 -0.539500	 -0.753000	  0.408500	    0.170000	    0.300000	    0.030000	   24.597656
   11.0756	 -0.520500	 -0.747000	  0.400000	   -0.510000	   -0.290000	    0.030000	   24.574219
   11.0856	 -0.543500	 -0.747500	  0.399000	   -0.940000	   -0.600000	    0.730000	   24.574219
   11.0956	 -0.532000	 -0.734500	  0.404000	   -0.380000	   -0.130000	    0.370000	   24.585938
   11.1056	 -0.537500	 -0.750500	  0.401000	    0.210000	    0.440000	   -0.190000	   24.625000
   11.1156	 -0.517000	 -0.748000	  0.393500	   -0.370000	   -0.320000	   -0.080000	   24.593750
   11.1256	 -0.536500	 -0.748500	  0.393000	   -1.050000	   -0.640000	    0.540000	   24.578125
   11.1358	 -0.531000	 -0.741000	  0.403500	   -0.530000	   -0.160000	    0.380000	   24.578125
   11.1456	 -0.535000	 -0.751000	  0.407500	   -0.130000	    0.280000	    0.060000	   24.585938
   11.1556	 -0.519000	 -0.746500	  0.401000	   -0.430000	   -0.060000	    0.080000	   24.585938
   11.1656	 -0.543500	 -0.752000	  0.399500	   -0.560000	   -0.220000	    0.430000	   24.554688
   11.1756	 -0.534500	 -0.742000	  0.404500	   -0.390000	   -0.150000	    0.300000	   24.578125
   11.1856	 -0.539500	 -0.753000	  0.404000	   -0.150000	    0.140000	   -0.040000	   24.593750
   11.1956	 -0.520000	 -0.740000	  0.391000	   -0.480000	   -0.230000	    0.280000	   24.562500
   11.2056	 -0.544000	 -0.745500	  0.393000	   -0.310000	    0.130000	    0.430000	   24.554688
   11.2158	 -0.532000	 -0.737000	  0.401000	   -0.200000	    0.030000	    0.180000	   24.589844
   11.2256	 -0.538000	 -0.752000	  0.406500	   -0.510000	   -0.320000	    0.020000	   24.574219
   11.2356	 -0.516500	 -0.740500	  0.399000	   -0.960000	   -0.630000	    0.300000	   24.574219
   11.2456	 -0.544500	 -0.747500	  0.399000	   -0.690000	   -0.100000	    0.300000	   24.570313
   11.2556	 -0.534500	 -0.742500	  0.405500	    0.000000	    0.330000	    0.210000	   24.562500
   11.2656	 -0.541000	 -0.763500	  0.409000	   -0.070000	    0.120000	   -0.290000	   24.589844
   11.2756	 -0.516000	 -0.749500	  0.395500	   -1.050000	   -0.850000	    0.140000	   24.605469
   11.2856	 -0.545500	 -0.754000	  0.397000	   -0.890000	   -0.380000	    0.390000	   24.585938
   11.2958	 -0.528500	 -0.736500	  0.401000	    0.080000	    0.210000	    0.610000	   24.570313
   11.3056	 -0.541000	 -0.749000	  0.404000	    0.370000	    0.590000	    0.120000	   24.593750
   11.3156	 -0.518000	 -0.734500	  0.397000	   -0.410000	   -0.320000	    0.290000	   24.578125
   11.3257	 -0.545500	 -0.740000	  0.399500	   -0.850000	   -0.500000	    0.370000	   24.570313
   11.3356	 -0.532500	 -0.736000	  0.406500	   -0.730000	   -0.310000	    0.230000	   24.578125
   11.3456	 -0.539000	 -0.760500	  0.407500	   -0.100000	   -0.090000	   -0.340000	   24.585938
   11.3556	 -0.518500	 -0.754500	  0.396500	   -0.490000	   -0.370000	   -0.150000	   24.570313
   11.3656	 -0.541500	 -0.753500	  0.395000	   -0.690000	   -0.260000	    0.490000	   24.578125
   11.3758	 -0.533000	 -0.741000	  0.401000	   -0.300000	    0.120000	    0.700000	   24.582031
   11.3856	 -0.543000	 -0.750000	  0.402500	    0.250000	    0.410000	    0.310000	   24.574219
   11.3956	 -0.520500	 -0.743000	  0.396500	   -0.420000	   -0.240000	   -0.040000	   24.585938
   11.4056	 -0.538500	 -0.747000	  0.398000	   -0.950000	   -0.450000	    0.090000	   24.554688
   11.4156	 -0.530000	 -0.736000	  0.405000	   -0.660000	   -0.310000	    0.360000	   24.546875
   11.4256	 -0.538000	 -0.753500	  0.407500	   -0.180000	    0.130000	    0.060000	   24.578125
   11.4356	 -0.521500	 -0.742000	  0.395500	   -0.340000	   -0.200000	    0.450000	   24.582031
   11.4456	 -0.547000	 -0.749000	  0.395500	   -0.250000	    0.030000	    0.390000	   24.601563
   11.4558	 -0.532000	 -0.740500	  0.403000	   -0.420000	   -0.040000	    0.210000	   24.593750
   11.4656	 -0.542500	 -0.757500	  0.406000	   -0.550000	   -0.390000	   -0.040000	   24.585938
   11.4760	 -0.517000	 -0.742500	  0.394500	   -0.870000	   -0.580000	    0.070000	   24.597656
   11.4856	 -0.541500	 -0.747000	  0.396000	   -0.320000	    0.020000	    0.400000	   24.625000
   11.4956	 -0.529000	 -0.736000	  0.401500	    0.160000	    0.360000	    0.400000	   24.605469
   11.5056	 -0.536500	 -0.753500	  0.406500	    0.100000	    0.170000	   -0.120000	   24.582031
   11.5156	 -0.515000	 -0.747500	  0.398000	   -1.030000	   -0.820000	   -0.090000	   24.558594
   11.5257	 -0.537500	 -0.748000	  0.396000	   -1.000000	   -0.570000	    0.330000	   24.589844
   11.5358	 -0.530500	 -0.743000	  0.406000	   -0.140000	    0.290000	    0.410000	   24.550781
   11.5456	 -0.538500	 -0.757000	  0.407500	    0.370000	    0.590000	    0.030000	   24.554688
   11.5556	 -0.519500	 -0.741500	  0.396500	   -0.420000	   -0.140000	    0.350000	   24.574219
   11.5656	 -0.542000	 -0.743500	  0.396000	   -0.620000	   -0.400000	    0.760000	   24.601563
   11.5756	 -0.533500	 -0.733000	  0.402000	   -0.260000	   -0.080000	    0.270000	   24.589844
   11.5856	 -0.535000	 -0.754500	  0.401000	   -0.010000	    0.240000	   -0.320000	   24.593750
   11.5956	 -0.514500	 -0.744500	  0.392000	   -0.730000	   -0.450000	   -0.180000	   24.597656
   11.6056	 -0.536000	 -0.744500	  0.392500	   -0.800000	   -0.350000	    0.480000	   24.574219
   11.6158	 -0.528000	 -0.738000	  0.403500	   -0.290000	    0.180000	    0.480000	   24.558594
   11.6257	 -0.540000	 -0.753500	  0.407000	    0.030000	    0.360000	    0.140000	   24.597656
   11.6356	 -0.518500	 -0.745500	  0.397000	   -0.290000	   -0.250000	    0.050000	   24.605469
   11.6456	 -0.540500	 -0.750000	  0.396500	   -0.790000	   -0.580000	    0.400000	   24.585938
   11.6556	 -0.532500	 -0.742000	  0.403500	   -0.400000	   -0.060000	    0.320000	   24.585938
   11.6656	 -0.537000	 -0.753000	  0.400500	    0.080000	    0.360000	   -0.060000	   24.589844
   11.6757	 -0.518500	 -0.743000	  0.391500	   -0.360000	   -0.120000	    0.250000	   24.589844
   11.6857	 -0.540500	 -0.746000	  0.391500	   -0.480000	   -0.230000	    0.760000	   24.597656
   11.6959	 -0.533500	 -0.746000	  0.406000	   -0.370000	    0.160000	    0.130000	   24.593750
   11.7057	 -0.539000	 -0.754000	  0.405500	   -0.340000	    0.000000	   -0.080000	   24.593750
   11.7156	 -0.518000	 -0.744000	  0.398000	   -0.670000	   -0.550000	    0.180000	   24.562500
   11.7257	 -0.543000	 -0.750000	  0.397000	   -0.620000	   -0.290000	    0.500000	   24.593750
   11.7356	 -0.530500	 -0.740000	  0.404500	    0.000000	    0.290000	    0.270000	   24.613281
   11.7456	 -0.540000	 -0.759000	  0.407000	    0.030000	    0.320000	   -0.120000	   24.582031
   11.7556	 -0.517000	 -0.747000	  0.393500	   -0.730000	   -0.630000	    0.300000	   24.566406
   11.7656	 -0.542000	 -0.747500	  0.391500	   -0.670000	   -0.250000	    0.540000	   24.554688
   11.7759	 -0.529500	 -0.739000	  0.400000	   -0.100000	    0.300000	    0.430000	   24.574219
   11.7856	 -0.539000	 -0.754000	  0.404500	    0.110000	    0.230000	    0.050000	   24.613281
   11.7956	 -0.516500	 -0.740500	  0.397000	   -0.570000	   -0.380000	    0.180000	   24.585938
   11.8057	 -0.546000	 -0.746000	  0.401500	   -0.700000	   -0.450000	    0.600000	   24.574219
   11.8157	 -0.533000	 -0.740000	  0.407000	   -0.210000	   -0.080000	    0.530000	   24.589844
   11.8257	 -0.538500	 -0.758000	  0.407000	    0.070000	    0.400000	   -0.140000	   24.582031
   11.8357	 -0.520000	 -0.751000	  0.397000	   -0.520000	   -0.380000	    0.010000	   24.562500
   11.8456	 -0.542000	 -0.751000	  0.393000	   -0.750000	   -0.400000	    0.670000	   24.550781
   11.8559	 -0.534000	 -0.737500	  0.399000	   -0.260000	    0.200000	    0.810000	   24.585938
   11.8656	 -0.541500	 -0.752500	  0.402000	    0.370000	    0.520000	    0.170000	   24.597656
   11.8757	 -0.519000	 -0.744500	  0.395000	   -0.450000	   -0.360000	    0.030000	   24.566406
   11.8856	 -0.540500	 -0.745500	  0.395500	   -0.950000	   -0.670000	    0.470000	   24.570313
   11.8957	 -0.533000	 -0.738500	  0.404500	   -0.550000	   -0.260000	    0.410000	   24.593750
   11.9056	 -0.539500	 -0.755000	  0.407500	    0.060000	    0.260000	    0.100000	   24.589844
   11.9157	 -0.523000	 -0.746500	  0.397500	   -0.200000	   -0.130000	    0.310000	   24.593750
   11.9257	 -0.545000	 -0.751000	  0.394500	   -0.400000	   -0.140000	    0.490000	   24.605469
   11.9359	 -0.533000	 -0.741500	  0.404000	   -0.400000	    0.030000	    0.330000	   24.601563
   11.9456	 -0.541500	 -0.755000	  0.406000	   -0.240000	   -0.080000	   -0.070000	   24.582031
   11.9557	 -0.519500	 -0.743500	  0.396500	   -0.510000	   -0.540000	    0.180000	   24.570313
   11.9657	 -0.539000	 -0.742500	  0.394000	   -0.620000	    0.000000	    0.450000	   24.585938
   11.9757	 -0.533500	 -0.738000	  0.403500	    0.070000	    0.230000	    0.470000	   24.597656
   11.9857	 -0.539500	 -0.750000	  0.405500	   -0.090000	    0.170000	    0.030000	   24.593750
   11.9957	 -0.519000	 -0.743000	  0.398000	   -0.710000	   -0.590000	   -0.020000	   24.593750
   12.0057	 -0.544000	 -0.750000	  0.396000	   -0.810000	   -0.630000	    0.440000	   24.558594
   12.0159	 -0.532000	 -0.742500	  0.404000	   -0.050000	    0.000000	    0.240000	   24.585938
   12.0257	 -0.539500	 -0.755000	  0.408000	    0.180000	    0.350000	   -0.090000	   24.582031
   12.0357	 -0.519000	 -0.741500	  0.397500	   -0.540000	   -0.330000	    0.190000	   24.578125
   12.0457	 -0.542500	 -0.743000	  0.395500	   -0.730000	   -0.330000	    0.690000	   24.585938
   12.0557	 -0.534500	 -0.734500	  0.401500	   -0.140000	    0.140000	    0.540000	   24.582031
   12.0657	 -0.536500	 -0.751000	  0.403000	    0.060000	    0.290000	   -0.320000	   24.585938
   12.0757	 -0.517500	 -0.747500	  0.395500	   -0.670000	   -0.660000	   -0.190000	   24.585938
   12.0857	 -0.537000	 -0.745000	  0.397000	   -0.910000	   -0.750000	    0.540000	   24.593750
   12.0959	 -0.533500	 -0.740500	  0.401500	   -0.200000	    0.190000	    0.480000	   24.597656
   12.1057	 -0.539000	 -0.755000	  0.407000	    0.500000	    0.630000	    0.050000	   24.574219
   12.1157	 -0.524500	 -0.748000	  0.400000	   -0.410000	   -0.240000	    0.010000	   24.570313
   12.1257	 -0.545500	 -0.750500	  0.399000	   -1.060000	   -0.700000	    0.490000	   24.582031
   12.1357	 -0.534000	 -0.737000	  0.402500	   -0.620000	   -0.040000	    0.150000	   24.570313
   12.1457	 -0.538500	 -0.753000	  0.402000	    0.160000	    0.390000	   -0.030000	   24.589844
   12.1557	 -0.519500	 -0.741500	  0.395000	   -0.210000	   -0.330000	    0.140000	   24.578125
   12.1657	 -0.539500	 -0.743500	  0.396000	   -0.700000	   -0.340000	    0.690000	   24.554688
   12.1759	 -0.534000	 -0.738000	  0.402500	   -0.440000	   -0.160000	    0.290000	   24.554688
   12.1857	 -0.538500	 -0.755000	  0.407000	   -0.340000	   -0.150000	   -0.230000	   24.558594
   12.1957	 -0.520000	 -0.749000	  0.398500	   -0.670000	   -0.550000	   -0.040000	   24.558594
   12.2057	 -0.543000	 -0.750500	  0.397500	   -0.560000	   -0.330000	    0.430000	   24.554688
   12.2157	 -0.535500	 -0.741000	  0.403500	   -0.120000	    0.260000	    0.500000	   24.593750
   12.2257	 -0.541500	 -0.752500	  0.404000	    0.230000	    0.490000	   -0.040000	   24.593750
   12.2357	 -0.521000	 -0.746000	  0.396500	   -0.680000	   -0.550000	   -0.070000	   24.578125
   12.2457	 -0.540500	 -0.747500	  0.393500	   -0.820000	   -0.660000	    0.420000	   24.570313
   12.2559	 -0.531500	 -0.741500	  0.400000	   -0.370000	   -0.120000	    0.170000	   24.585938
   12.2657	 -0.535500	 -0.753500	  0.405500	   -0.040000	    0.230000	    0.040000	   24.585938
   12.2757	 -0.517500	 -0.740500	  0.399000	   -0.280000	   -0.350000	    0.240000	   24.574219
   12.2857	 -0.544000	 -0.746000	  0.397500	   -0.550000	   -0.360000	    0.690000	   24.597656
   12.2957	 -0.538000	 -0.740000	  0.404500	   -0.190000	    0.050000	    0.270000	   24.593750
   12.3057	 -0.537500	 -0.758000	  0.405500	   -0.070000	    0.020000	   -0.390000	   24.609375
   12.3157	 -0.517500	 -0.750000	  0.396500	   -0.920000	   -0.810000	   -0.080000	   24.605469
   12.3257	 -0.540500	 -0.749000	  0.394000	   -0.880000	   -0.450000	    0.480000	   24.582031
   12.3359	 -0.533500	 -0.741000	  0.398500	   -0.090000	    0.230000	    0.440000	   24.566406
   12.3457	 -0.535000	 -0.751500	  0.402000	    0.250000	    0.420000	    0.160000	   24.589844
   12.3557	 -0.517000	 -0.741000	  0.396500	   -0.400000	   -0.400000	    0.170000	   24.597656
   12.3657	 -0.540000	 -0.745000	  0.397000	   -0.940000	   -0.450000	    0.440000	   24.585938
   12.3757	 -0.533500	 -0.741000	  0.407000	   -0.420000	   -0.210000	    0.210000	   24.582031
   12.3857	 -0.539000	 -0.756000	  0.406500	   -0.150000	    0.020000	   -0.110000	   24.585938
   12.3957	 -0.520500	 -0.746500	  0.395000	   -0.270000	   -0.170000	    0.050000	   24.570313
   12.4057	 -0.543500	 -0.749500	  0.396000	   -0.420000	   -0.290000	    0.550000	   24.574219
   12.4159	 -0.533000	 -0.736000	  0.402500	   -0.370000	    0.060000	    0.540000	   24.593750
   12.4257	 -0.541000	 -0.753500	  0.404000	   -0.270000	    0.100000	   -0.140000	   24.585938
   12.4357	 -0.516500	 -0.744000	  0.394000	   -0.650000	   -0.440000	    0.020000	   24.566406
   12.4457	 -0.539500	 -0.744500	  0.395000	   -0.680000	   -0.440000	    0.500000	   24.574219
   12.4557	 -0.532500	 -0.739000	  0.402000	   -0.100000	    0.170000	    0.240000	   24.585938
   12.4657	 -0.537500	 -0.755000	  0.405500	    0.090000	    0.330000	   -0.010000	   24.593750
   12.4761	 -0.518500	 -0.749000	  0.398000	   -0.680000	   -0.520000	    0.070000	   24.570313
   12.4857	 -0.543000	 -0.753500	  0.396500	   -0.920000	   -0.640000	    0.370000	   24.578125
   12.4959	 -0.530000	 -0.741000	  0.404500	   -0.360000	    0.060000	    0.330000	   24.578125
   12.5057	 -0.539500	 -0.756000	  0.406500	    0.240000	    0.360000	    0.000000	   24.585938
   12.5157	 -0.518000	 -0.738000	  0.395500	   -0.340000	   -0.330000	    0.360000	   24.589844
   12.5257	 -0.544000	 -0.744500	  0.395500	   -0.520000	   -0.150000	    0.550000	   24.566406
   12.5357	 -0.531500	 -0.735000	  0.402000	   -0.270000	    0.130000	    0.330000	   24.597656
   12.5457	 -0.536500	 -0.751000	  0.403500	   -0.160000	    0.090000	   -0.220000	   24.585938
   12.5557	 -0.515000	 -0.744000	  0.395500	   -0.670000	   -0.670000	   -0.050000	   24.578125
   12.5657	 -0.538500	 -0.747500	  0.395500	   -0.800000	   -0.340000	    0.520000	   24.582031
   12.5759	 -0.533000	 -0.745500	  0.405000	   -0.180000	    0.190000	    0.500000	   24.601563
   12.5857	 -0.537500	 -0.757000	  0.405500	    0.270000	    0.380000	   -0.040000	   24.609375
   12.5957	 -0.519500	 -0.748000	  0.397000	   -0.420000	   -0.420000	    0.160000	   24.589844
   12.6057	 -0.543000	 -0.749500	  0.397500	   -0.790000	   -0.450000	    0.610000	   24.597656
   12.6157	 -0.534000	 -0.738000	  0.401500	   -0.220000	    0.100000	    0.390000	   24.585938
