ï»¿Time_s    	AccX_g    	AccY_g    	AccZ_g    	GyroX_degs  	GyroY_degs  	GyroZ_degs  	IMU_Temperature
    0.0667	 -0.005500	  0.023500	  1.012000	   -0.340000	   -0.170000	    0.160000	   23.828125
    0.0692	 -0.000500	  0.023500	  1.007500	   -0.360000	   -0.040000	    0.200000	   23.824219
    0.0717	 -0.002000	  0.022000	  1.008000	   -0.520000	   -0.230000	    0.350000	   23.800781
    0.0742	 -0.003000	  0.024500	  1.009000	   -0.420000	   -0.200000	    0.240000	   23.824219
    0.0772	  0.003000	  0.024000	  1.007500	   -0.410000	   -0.100000	    0.260000	   23.839844
    0.0872	  0.002000	  0.025500	  1.008000	   -0.410000	   -0.190000	    0.390000	   23.832031
    0.0973	 -0.000500	  0.025500	  1.010500	   -0.350000	   -0.180000	    0.200000	   23.847656
    0.1072	  0.003000	  0.026000	  1.007500	   -0.340000	   -0.110000	    0.260000	   23.863281
    0.1172	  0.002000	  0.025500	  1.008500	   -0.400000	   -0.290000	    0.220000	   23.843750
    0.1272	 -0.001500	  0.026500	  1.010000	   -0.350000	   -0.150000	    0.180000	   23.843750
    0.1372	  0.000500	  0.026000	  1.007500	   -0.460000	   -0.100000	    0.140000	   23.843750
    0.1472	  0.002000	  0.026500	  1.009500	   -0.370000	   -0.100000	    0.240000	   23.851563
    0.1572	 -0.001000	  0.026000	  1.010000	   -0.460000	   -0.250000	    0.290000	   23.828125
    0.1672	 -0.001500	  0.027500	  1.008000	   -0.230000	   -0.230000	    0.310000	   23.832031
    0.1772	  0.001500	  0.027000	  1.008000	   -0.370000	   -0.060000	    0.210000	   23.843750
    0.1872	  0.000500	  0.026000	  1.008500	   -0.470000	   -0.300000	    0.290000	   23.867188
    0.1973	 -0.000500	  0.025500	  1.007000	   -0.420000	   -0.150000	    0.210000	   23.871094
    0.2072	  0.000000	  0.024500	  1.006500	   -0.350000	    0.020000	    0.270000	   23.878906
    0.2172	  0.000500	  0.024500	  1.009000	   -0.350000	    0.000000	    0.200000	   23.855469
    0.2272	 -0.002500	  0.024000	  1.010000	   -0.370000	   -0.230000	    0.190000	   23.835938
    0.2372	 -0.001000	  0.024500	  1.007000	   -0.390000	   -0.130000	    0.250000	   23.843750
    0.2472	 -0.001500	  0.025000	  1.008000	   -0.480000	   -0.150000	    0.260000	   23.835938
    0.2572	 -0.001000	  0.025500	  1.010000	   -0.400000	   -0.120000	    0.350000	   23.820313
    0.2672	  0.000500	  0.024500	  1.009000	   -0.380000	   -0.180000	    0.280000	   23.832031
    0.2772	  0.000000	  0.024500	  1.008500	   -0.480000	   -0.160000	    0.300000	   23.875000
    0.2872	  0.000000	  0.024000	  1.010000	   -0.520000	   -0.140000	    0.230000	   23.875000
    0.2973	  0.001000	  0.024500	  1.007500	   -0.420000	   -0.090000	    0.230000	   23.859375
    0.3072	  0.001000	  0.024500	  1.008500	   -0.470000	   -0.200000	    0.220000	   23.855469
    0.3172	  0.001500	  0.025000	  1.007500	   -0.400000	   -0.110000	    0.190000	   23.851563
    0.3272	  0.000500	  0.025000	  1.008000	   -0.390000	   -0.230000	    0.240000	   23.828125
    0.3372	 -0.000500	  0.024000	  1.008500	   -0.430000	   -0.100000	    0.270000	   23.832031
    0.3472	 -0.000500	  0.024500	  1.008000	   -0.410000	   -0.160000	    0.250000	   23.839844
    0.3572	  0.000000	  0.023000	  1.009500	   -0.350000	   -0.220000	    0.130000	   23.839844
    0.3672	 -0.000500	  0.023000	  1.006500	   -0.410000	   -0.090000	    0.230000	   23.851563
    0.3772	 -0.001500	  0.024000	  1.009500	   -0.320000	   -0.120000	    0.260000	   23.835938
    0.3872	 -0.001000	  0.024500	  1.008500	   -0.430000	   -0.130000	    0.300000	   23.843750
    0.3973	 -0.000500	  0.025500	  1.008500	   -0.430000	   -0.200000	    0.320000	   23.859375
    0.4072	 -0.001000	  0.025500	  1.008000	   -0.350000	   -0.150000	    0.270000	   23.847656
    0.4172	 -0.002000	  0.025500	  1.006500	   -0.320000	   -0.160000	    0.260000	   23.843750
    0.4272	  0.000500	  0.026500	  1.008500	   -0.200000	   -0.110000	    0.220000	   23.839844
    0.4372	 -0.000500	  0.026000	  1.006500	   -0.370000	   -0.160000	    0.280000	   23.839844
    0.4472	  0.000500	  0.028000	  1.008000	   -0.340000	   -0.290000	    0.150000	   23.851563
    0.4572	  0.000000	  0.026500	  1.010000	   -0.360000	   -0.140000	    0.160000	   23.855469
    0.4672	  0.001500	  0.027000	  1.006500	   -0.430000	   -0.200000	    0.200000	   23.855469
    0.4772	  0.001000	  0.027000	  1.008500	   -0.350000	   -0.010000	    0.140000	   23.859375
    0.4872	  0.000500	  0.026000	  1.006000	   -0.390000	   -0.120000	    0.210000	   23.832031
    0.4973	  0.000500	  0.025000	  1.010000	   -0.390000	   -0.190000	    0.260000	   23.871094
    0.5072	  0.000000	  0.025000	  1.008000	   -0.370000	   -0.150000	    0.270000	   23.859375
    0.5172	  0.001000	  0.025500	  1.007500	   -0.400000	   -0.180000	    0.190000	   23.843750
    0.5272	  0.000000	  0.025000	  1.008000	   -0.400000	   -0.250000	    0.360000	   23.835938
    0.5372	  0.000500	  0.025500	  1.010500	   -0.470000	   -0.210000	    0.270000	   23.832031
    0.5472	  0.000000	  0.024500	  1.009500	   -0.250000	   -0.120000	    0.230000	   23.824219
    0.5572	 -0.000500	  0.024000	  1.008000	   -0.460000	   -0.020000	    0.250000	   23.839844
    0.5672	 -0.001000	  0.024500	  1.010000	   -0.350000	   -0.100000	    0.220000	   23.871094
    0.5772	 -0.001000	  0.024000	  1.009500	   -0.400000	   -0.110000	    0.250000	   23.863281
    0.5872	  0.000000	  0.025000	  1.008000	   -0.350000	   -0.140000	    0.230000	   23.855469
    0.5973	 -0.000500	  0.024500	  1.008000	   -0.380000	   -0.070000	    0.100000	   23.843750
    0.6072	 -0.001000	  0.024000	  1.009000	   -0.410000	   -0.230000	    0.190000	   23.835938
    0.6173	  0.000000	  0.024500	  1.009000	   -0.500000	   -0.120000	    0.200000	   23.832031
    0.6272	  0.000000	  0.025500	  1.007000	   -0.380000	   -0.130000	    0.210000	   23.820313
    0.6372	  0.000500	  0.024500	  1.010000	   -0.350000	   -0.100000	    0.220000	   23.835938
    0.6472	  0.000500	  0.025500	  1.007000	   -0.390000	   -0.130000	    0.270000	   23.859375
    0.6572	  0.000000	  0.024500	  1.007500	   -0.340000	   -0.110000	    0.200000	   23.871094
    0.6673	 -0.001000	  0.025500	  1.009500	   -0.470000	   -0.080000	    0.250000	   23.859375
    0.6772	  0.000500	  0.025000	  1.005500	   -0.470000	   -0.210000	    0.340000	   23.855469
    0.6872	  0.001000	  0.027000	  1.010000	   -0.280000	   -0.070000	    0.240000	   23.824219
    0.6973	  0.000000	  0.025000	  1.007000	   -0.350000	   -0.090000	    0.240000	   23.828125
    0.7073	  0.000500	  0.027000	  1.008500	   -0.390000	   -0.030000	    0.220000	   23.832031
    0.7173	  0.000500	  0.026000	  1.008500	   -0.190000	    0.020000	    0.130000	   23.863281
    0.7273	 -0.000500	  0.026500	  1.009000	   -0.390000	   -0.200000	    0.210000	   23.859375
    0.7373	 -0.001000	  0.026000	  1.009000	   -0.290000	   -0.160000	    0.300000	   23.859375
    0.7473	 -0.000500	  0.026000	  1.007500	   -0.470000	   -0.220000	    0.240000	   23.875000
    0.7573	 -0.000500	  0.024000	  1.009500	   -0.400000	   -0.090000	    0.180000	   23.843750
    0.7673	 -0.000500	  0.025500	  1.007000	   -0.400000	   -0.080000	    0.150000	   23.847656
    0.7773	 -0.001500	  0.024500	  1.008500	   -0.470000	   -0.220000	    0.340000	   23.851563
    0.7873	  0.000500	  0.025500	  1.008500	   -0.360000	   -0.260000	    0.230000	   23.847656
    0.7973	  0.000000	  0.025500	  1.008500	   -0.270000	   -0.220000	    0.250000	   23.851563
    0.8073	 -0.000500	  0.024500	  1.009000	   -0.450000	   -0.100000	    0.360000	   23.847656
    0.8173	  0.000000	  0.025000	  1.009500	   -0.300000	   -0.030000	    0.210000	   23.867188
    0.8273	  0.001000	  0.024500	  1.010000	   -0.320000	   -0.090000	    0.060000	   23.851563
    0.8373	  0.000500	  0.023500	  1.006000	   -0.360000	   -0.140000	    0.390000	   23.867188
    0.8473	  0.002000	  0.025000	  1.010000	   -0.340000	   -0.120000	    0.300000	   23.875000
    0.8573	  0.001000	  0.025500	  1.008500	   -0.420000	   -0.120000	    0.180000	   23.863281
    0.8673	 -0.000500	  0.024500	  1.006500	   -0.270000	   -0.070000	    0.240000	   23.867188
    0.8773	 -0.002000	  0.024500	  1.010000	   -0.390000	   -0.130000	    0.270000	   23.863281
    0.8873	 -0.001500	  0.027000	  1.008500	   -0.450000	   -0.150000	    0.190000	   23.847656
    0.8973	 -0.002000	  0.026000	  1.009000	   -0.430000	   -0.200000	    0.210000	   23.832031
    0.9073	 -0.003500	  0.025000	  1.008500	   -0.350000	   -0.200000	    0.250000	   23.828125
    0.9173	 -0.000500	  0.025500	  1.010000	   -0.510000	   -0.220000	    0.210000	   23.851563
    0.9273	 -0.001500	  0.026000	  1.009000	   -0.320000	   -0.210000	    0.180000	   23.859375
    0.9373	 -0.001500	  0.026000	  1.008000	   -0.390000	   -0.100000	    0.320000	   23.851563
    0.9476	  0.000500	  0.026000	  1.007500	   -0.440000	   -0.240000	    0.220000	   23.871094
    0.9573	  0.000500	  0.025000	  1.007500	   -0.440000	   -0.150000	    0.320000	   23.871094
    0.9673	  0.000000	  0.026000	  1.009000	   -0.530000	   -0.210000	    0.350000	   23.875000
    0.9773	  0.000000	  0.026500	  1.006500	   -0.410000	   -0.120000	    0.270000	   23.859375
    0.9873	 -0.001000	  0.026000	  1.008000	   -0.440000	   -0.180000	    0.220000	   23.875000
    0.9973	  0.000000	  0.025500	  1.010000	   -0.330000	   -0.060000	    0.300000	   23.875000
    1.0073	  0.000000	  0.025500	  1.008000	   -0.360000	   -0.110000	    0.170000	   23.859375
    1.0173	  0.000500	  0.025000	  1.009000	   -0.430000	   -0.130000	    0.220000	   23.863281
    1.0273	  0.001500	  0.025500	  1.008000	   -0.410000	   -0.110000	    0.230000	   23.859375
    1.0373	  0.003000	  0.025500	  1.008500	   -0.340000	   -0.070000	    0.210000	   23.863281
    1.0473	  0.001000	  0.026000	  1.006500	   -0.320000	   -0.080000	    0.220000	   23.843750
    1.0573	  0.001500	  0.025500	  1.009000	   -0.300000	   -0.130000	    0.290000	   23.828125
    1.0673	  0.000500	  0.025500	  1.009500	   -0.300000	   -0.140000	    0.170000	   23.824219
    1.0773	 -0.002000	  0.024500	  1.006500	   -0.460000	   -0.060000	    0.230000	   23.847656
    1.0873	 -0.002500	  0.024000	  1.009500	   -0.430000	   -0.230000	    0.180000	   23.863281
    1.0973	 -0.003500	  0.024500	  1.010000	   -0.390000	   -0.120000	    0.210000	   23.878906
    1.1073	 -0.002500	  0.023500	  1.008500	   -0.350000	   -0.160000	    0.080000	   23.871094
    1.1173	 -0.003000	  0.025000	  1.008500	   -0.450000	   -0.180000	    0.260000	   23.902344
    1.1273	 -0.002000	  0.024500	  1.009500	   -0.400000	   -0.140000	    0.200000	   23.875000
    1.1373	  0.001500	  0.025500	  1.008000	   -0.340000	   -0.180000	    0.320000	   23.875000
    1.1473	  0.001000	  0.025000	  1.008000	   -0.350000	   -0.110000	    0.170000	   23.859375
    1.1573	  0.000500	  0.025000	  1.009000	   -0.370000	   -0.270000	    0.280000	   23.878906
    1.1673	  0.002000	  0.026000	  1.007000	   -0.390000	   -0.200000	    0.260000	   23.878906
    1.1773	  0.001000	  0.026500	  1.008500	   -0.370000	   -0.140000	    0.240000	   23.890625
    1.1873	  0.000500	  0.026500	  1.009500	   -0.510000	   -0.130000	    0.320000	   23.886719
    1.1973	  0.001000	  0.025000	  1.007000	   -0.360000	   -0.070000	    0.270000	   23.875000
    1.2073	  0.001500	  0.024500	  1.009000	   -0.470000	   -0.050000	    0.290000	   23.863281
    1.2173	  0.001500	  0.026000	  1.005500	   -0.410000	   -0.140000	    0.250000	   23.855469
    1.2273	  0.004000	  0.026000	  1.006500	   -0.300000	   -0.100000	    0.160000	   23.835938
    1.2373	  0.002500	  0.025500	  1.007000	   -0.510000	   -0.110000	    0.230000	   23.855469
    1.2473	  0.000000	  0.025500	  1.007000	   -0.440000	   -0.120000	    0.170000	   23.863281
    1.2573	 -0.000500	  0.025500	  1.009500	   -0.420000	   -0.120000	    0.130000	   23.867188
    1.2673	 -0.001000	  0.026000	  1.007500	   -0.450000	   -0.160000	    0.290000	   23.878906
    1.2773	 -0.003000	  0.025000	  1.008500	   -0.440000	   -0.230000	    0.120000	   23.859375
    1.2873	 -0.005500	  0.023500	  1.009000	   -0.390000	   -0.280000	    0.320000	   23.847656
    1.2973	 -0.002000	  0.025000	  1.010500	   -0.420000	   -0.090000	    0.240000	   23.886719
    1.3073	 -0.003500	  0.023500	  1.008000	   -0.360000	   -0.150000	    0.190000	   23.875000
    1.3173	 -0.003000	  0.024500	  1.011500	   -0.290000	   -0.100000	    0.280000	   23.867188
    1.3273	  0.001000	  0.025500	  1.009000	   -0.410000	   -0.280000	    0.370000	   23.875000
    1.3373	  0.001000	  0.026000	  1.008000	   -0.500000	   -0.160000	    0.260000	   23.882813
    1.3473	  0.000500	  0.024500	  1.006500	   -0.380000	   -0.030000	    0.360000	   23.843750
    1.3573	  0.003500	  0.026000	  1.008000	   -0.360000	   -0.020000	    0.180000	   23.859375
    1.3673	  0.003000	  0.025500	  1.008500	   -0.340000	   -0.090000	    0.220000	   23.878906
    1.3773	 -0.001500	  0.025500	  1.007500	   -0.310000	   -0.170000	    0.280000	   23.894531
    1.3873	  0.000500	  0.025000	  1.011000	   -0.430000	   -0.110000	    0.290000	   23.863281
    1.3973	  0.001500	  0.026500	  1.007500	   -0.390000	   -0.170000	    0.290000	   23.839844
    1.4073	  0.000000	  0.025500	  1.008000	   -0.500000	   -0.120000	    0.270000	   23.839844
    1.4173	  0.001500	  0.026500	  1.010000	   -0.400000	   -0.080000	    0.250000	   23.839844
    1.4273	  0.006000	  0.025500	  1.007000	   -0.260000	   -0.040000	    0.160000	   23.871094
    1.4373	  0.004000	  0.025500	  1.008500	   -0.380000	   -0.130000	    0.300000	   23.859375
    1.4473	 -0.001500	  0.026500	  1.006000	   -0.430000	   -0.080000	    0.150000	   23.847656
    1.4573	  0.000000	  0.025500	  1.005000	   -0.420000	   -0.200000	    0.250000	   23.867188
    1.4673	  0.000000	  0.025500	  1.008500	   -0.400000	   -0.210000	    0.190000	   23.875000
    1.4773	 -0.003500	  0.024500	  1.007500	   -0.380000	   -0.110000	    0.210000	   23.875000
    1.4873	 -0.005500	  0.024500	  1.010000	   -0.330000	   -0.150000	    0.400000	   23.878906
    1.4973	 -0.002000	  0.024500	  1.010000	   -0.470000	   -0.160000	    0.290000	   23.894531
    1.5073	 -0.004000	  0.025000	  1.009000	   -0.390000	   -0.120000	    0.140000	   23.882813
    1.5173	 -0.005000	  0.023000	  1.008500	   -0.440000	   -0.190000	    0.360000	   23.878906
    1.5273	  0.000000	  0.024000	  1.010500	   -0.390000	   -0.140000	    0.320000	   23.863281
    1.5373	  0.002000	  0.024000	  1.008000	   -0.290000	   -0.080000	    0.280000	   23.863281
    1.5473	  0.000500	  0.024500	  1.007500	   -0.390000	   -0.120000	    0.330000	   23.859375
    1.5573	  0.002000	  0.025000	  1.007000	   -0.280000	   -0.170000	    0.250000	   23.843750
    1.5673	  0.003500	  0.024500	  1.008500	   -0.390000	   -0.250000	    0.260000	   23.859375
    1.5773	 -0.001500	  0.025000	  1.007000	   -0.410000	   -0.190000	    0.330000	   23.886719
    1.5873	 -0.001000	  0.024500	  1.010000	   -0.300000	   -0.100000	    0.270000	   23.894531
    1.5973	  0.001500	  0.024500	  1.010000	   -0.400000	   -0.150000	    0.230000	   23.867188
    1.6073	 -0.000500	  0.024500	  1.007000	   -0.380000	   -0.030000	    0.240000	   23.867188
    1.6173	 -0.000500	  0.026000	  1.008000	   -0.300000	   -0.120000	    0.280000	   23.875000
    1.6273	  0.005000	  0.026000	  1.008000	   -0.360000	   -0.120000	    0.220000	   23.859375
    1.6373	  0.003000	  0.025500	  1.007500	   -0.420000	   -0.120000	    0.260000	   23.875000
    1.6473	 -0.001500	  0.026000	  1.007000	   -0.400000	   -0.250000	    0.160000	   23.902344
    1.6573	  0.000500	  0.027500	  1.008000	   -0.440000	   -0.190000	    0.270000	   23.898438
    1.6673	  0.001000	  0.026500	  1.008000	   -0.400000	   -0.120000	    0.240000	   23.882813
    1.6773	 -0.006500	  0.025500	  1.008500	   -0.390000	   -0.010000	    0.230000	   23.890625
    1.6873	 -0.004500	  0.025000	  1.010500	   -0.350000	   -0.150000	    0.190000	   23.894531
    1.6973	 -0.002500	  0.024000	  1.010000	   -0.320000	   -0.200000	    0.260000	   23.890625
    1.7073	 -0.005000	  0.024500	  1.007500	   -0.390000	   -0.140000	    0.310000	   23.859375
    1.7173	 -0.004500	  0.024500	  1.011500	   -0.440000	   -0.140000	    0.250000	   23.867188
    1.7273	  0.002500	  0.024000	  1.008000	   -0.360000	   -0.260000	    0.220000	   23.851563
    1.7373	  0.002000	  0.025000	  1.011000	   -0.230000	   -0.210000	    0.220000	   23.855469
    1.7473	 -0.000500	  0.023500	  1.007000	   -0.510000	   -0.230000	    0.370000	   23.847656
    1.7573	  0.003000	  0.025500	  1.008000	   -0.420000	   -0.110000	    0.210000	   23.851563
    1.7673	  0.001000	  0.025000	  1.008500	   -0.440000	   -0.050000	    0.220000	   23.863281
    1.7773	 -0.001000	  0.026500	  1.009000	   -0.300000	   -0.210000	    0.250000	   23.882813
    1.7873	  0.001000	  0.024000	  1.008500	   -0.400000	   -0.090000	    0.160000	   23.898438
    1.7974	  0.000000	  0.025500	  1.007500	   -0.360000	   -0.200000	    0.180000	   23.902344
    1.8073	  0.000500	  0.025000	  1.008500	   -0.400000	   -0.040000	    0.190000	   23.882813
    1.8173	  0.003000	  0.027000	  1.006500	   -0.350000	   -0.180000	    0.210000	   23.878906
    1.8273	  0.004000	  0.026500	  1.008000	   -0.440000	   -0.240000	    0.240000	   23.882813
    1.8373	  0.001500	  0.027000	  1.007500	   -0.310000	   -0.050000	    0.180000	   23.871094
    1.8473	 -0.001500	  0.027000	  1.007500	   -0.450000	   -0.230000	    0.260000	   23.882813
    1.8573	  0.000000	  0.026500	  1.007500	   -0.370000	   -0.150000	    0.240000	   23.882813
    1.8673	 -0.003000	  0.025000	  1.007000	   -0.420000	   -0.170000	    0.270000	   23.882813
    1.8773	 -0.006500	  0.024000	  1.010500	   -0.450000	   -0.210000	    0.320000	   23.882813
    1.8873	 -0.004000	  0.025000	  1.010500	   -0.410000	   -0.130000	    0.240000	   23.898438
    1.8973	 -0.002500	  0.023500	  1.008000	   -0.430000	   -0.220000	    0.230000	   23.894531
    1.9073	 -0.004500	  0.024500	  1.009500	   -0.370000	   -0.100000	    0.200000	   23.886719
    1.9173	 -0.001000	  0.023500	  1.011000	   -0.430000	   -0.120000	    0.220000	   23.902344
    1.9273	  0.001500	  0.024000	  1.008500	   -0.350000	   -0.100000	    0.220000	   23.902344
    1.9373	  0.001000	  0.026000	  1.007000	   -0.370000	   -0.120000	    0.310000	   23.902344
    1.9473	  0.002500	  0.025000	  1.008500	   -0.360000	   -0.100000	    0.220000	   23.875000
    1.9577	  0.002500	  0.025500	  1.006000	   -0.390000	   -0.170000	    0.230000	   23.878906
    1.9673	  0.000000	  0.024500	  1.008500	   -0.320000	   -0.260000	    0.270000	   23.878906
    1.9773	  0.000500	  0.025000	  1.009500	   -0.320000	   -0.200000	    0.240000	   23.894531
    1.9873	  0.001500	  0.024000	  1.008500	   -0.460000	   -0.240000	    0.230000	   23.906250
    1.9973	  0.000000	  0.025500	  1.009500	   -0.320000	   -0.110000	    0.240000	   23.902344
    2.0074	  0.000000	  0.026000	  1.008500	   -0.440000	   -0.010000	    0.170000	   23.894531
    2.0173	  0.002500	  0.025500	  1.006000	   -0.460000	   -0.160000	    0.250000	   23.898438
    2.0273	  0.001000	  0.026000	  1.008500	   -0.350000	   -0.090000	    0.190000	   23.890625
    2.0373	 -0.001000	  0.026000	  1.007500	   -0.410000	   -0.190000	    0.270000	   23.894531
    2.0473	  0.000000	  0.026000	  1.008000	   -0.330000	   -0.160000	    0.280000	   23.875000
    2.0573	  0.001000	  0.023500	  1.007000	   -0.380000	   -0.160000	    0.190000	   23.851563
    2.0673	 -0.005000	  0.023500	  1.007000	   -0.370000	   -0.170000	    0.320000	   23.863281
    2.0773	 -0.005000	  0.024000	  1.010500	   -0.390000	   -0.030000	    0.130000	   23.875000
    2.0873	 -0.002000	  0.024500	  1.007500	   -0.280000	   -0.030000	    0.260000	   23.882813
    2.0973	 -0.002500	  0.024500	  1.010000	   -0.330000	   -0.160000	    0.230000	   23.917969
    2.1074	 -0.002500	  0.025000	  1.008000	   -0.400000	   -0.200000	    0.210000	   23.894531
    2.1173	  0.001000	  0.025000	  1.008000	   -0.330000	   -0.110000	    0.270000	   23.878906
    2.1273	  0.002500	  0.024500	  1.009500	   -0.300000	   -0.110000	    0.250000	   23.875000
    2.1373	  0.002000	  0.025000	  1.008000	   -0.380000	   -0.050000	    0.250000	   23.882813
    2.1473	  0.002500	  0.025000	  1.006000	   -0.350000	   -0.210000	    0.200000	   23.882813
    2.1573	  0.002000	  0.025000	  1.008000	   -0.330000	   -0.180000	    0.320000	   23.863281
    2.1673	 -0.000500	  0.025000	  1.009500	   -0.350000	   -0.160000	    0.220000	   23.882813
    2.1773	  0.002000	  0.026000	  1.008000	   -0.350000	   -0.100000	    0.220000	   23.878906
    2.1873	  0.001000	  0.026500	  1.008000	   -0.500000	   -0.150000	    0.180000	   23.871094
    2.1974	  0.002000	  0.027000	  1.008500	   -0.370000	   -0.230000	    0.300000	   23.871094
    2.2073	  0.003000	  0.025500	  1.006500	   -0.340000	   -0.080000	    0.190000	   23.875000
    2.2173	  0.001500	  0.026500	  1.009500	   -0.420000	   -0.030000	    0.110000	   23.875000
    2.2273	 -0.001000	  0.026000	  1.007500	   -0.440000	   -0.100000	    0.200000	   23.886719
    2.2373	 -0.001000	  0.026000	  1.008000	   -0.450000	   -0.140000	    0.320000	   23.878906
    2.2473	 -0.002500	  0.026000	  1.009500	   -0.370000	   -0.190000	    0.220000	   23.878906
    2.2573	 -0.003500	  0.025000	  1.009000	   -0.400000	   -0.080000	    0.240000	   23.890625
    2.2673	 -0.004500	  0.024000	  1.009500	   -0.450000	   -0.170000	    0.280000	   23.875000
    2.2773	 -0.004500	  0.024500	  1.011500	   -0.370000	   -0.040000	    0.280000	   23.890625
    2.2873	 -0.002500	  0.024500	  1.010500	   -0.390000	   -0.130000	    0.250000	   23.906250
    2.2973	 -0.002500	  0.024000	  1.008000	   -0.420000	   -0.120000	    0.260000	   23.890625
    2.3074	 -0.002000	  0.024000	  1.008500	   -0.410000	   -0.160000	    0.400000	   23.878906
    2.3173	  0.001500	  0.025000	  1.006500	   -0.360000	   -0.200000	    0.320000	   23.886719
    2.3273	  0.002500	  0.026000	  1.009000	   -0.280000	   -0.270000	    0.310000	   23.890625
    2.3373	  0.001500	  0.025500	  1.007500	   -0.360000	   -0.170000	    0.220000	   23.878906
    2.3473	  0.001000	  0.026000	  1.009500	   -0.400000	   -0.240000	    0.360000	   23.890625
    2.3573	  0.002000	  0.026000	  1.010000	   -0.350000	    0.060000	    0.290000	   23.875000
    2.3674	  0.003500	  0.026000	  1.008500	   -0.400000	   -0.040000	    0.170000	   23.906250
    2.3774	  0.000500	  0.025500	  1.009500	   -0.500000	   -0.130000	    0.210000	   23.875000
    2.3873	  0.002500	  0.026000	  1.006500	   -0.410000	   -0.190000	    0.280000	   23.886719
    2.3974	  0.004000	  0.026000	  1.009500	   -0.370000	   -0.110000	    0.200000	   23.914063
    2.4073	  0.001500	  0.024500	  1.008000	   -0.290000	   -0.010000	    0.150000	   23.906250
    2.4173	  0.000500	  0.027500	  1.007000	   -0.200000	   -0.190000	    0.270000	   23.917969
    2.4273	 -0.001500	  0.025000	  1.008000	   -0.420000	   -0.050000	    0.200000	   23.906250
    2.4373	 -0.001500	  0.025500	  1.008500	   -0.340000	   -0.060000	    0.130000	   23.906250
    2.4473	 -0.004500	  0.024500	  1.008000	   -0.390000	   -0.190000	    0.110000	   23.882813
    2.4573	 -0.004500	  0.023500	  1.008500	   -0.370000	   -0.200000	    0.260000	   23.894531
    2.4674	 -0.003000	  0.023500	  1.009000	   -0.420000	   -0.110000	    0.310000	   23.894531
    2.4774	 -0.004500	  0.023500	  1.009500	   -0.530000	   -0.290000	    0.310000	   23.878906
    2.4873	 -0.003000	  0.025000	  1.011000	   -0.450000	   -0.140000	    0.260000	   23.886719
    2.4973	  0.000500	  0.024000	  1.007000	   -0.360000	   -0.150000	    0.320000	   23.894531
    2.5074	  0.001500	  0.024000	  1.007500	   -0.500000	   -0.190000	    0.340000	   23.871094
    2.5174	  0.002000	  0.024500	  1.008500	   -0.410000	   -0.180000	    0.260000	   23.875000
    2.5274	  0.002000	  0.025500	  1.007500	   -0.410000	   -0.200000	    0.290000	   23.890625
    2.5374	  0.002000	  0.025500	  1.007500	   -0.430000	   -0.240000	    0.370000	   23.894531
    2.5474	  0.000000	  0.025500	  1.010000	   -0.420000	   -0.050000	    0.290000	   23.882813
    2.5574	  0.001500	  0.024000	  1.007000	   -0.350000	   -0.050000	    0.230000	   23.871094
    2.5674	  0.002000	  0.024500	  1.008500	   -0.390000	   -0.140000	    0.230000	   23.898438
    2.5774	  0.005000	  0.026500	  1.008500	   -0.390000	    0.000000	    0.220000	   23.890625
    2.5874	  0.006500	  0.024500	  1.005500	   -0.340000	   -0.170000	    0.270000	   23.886719
    2.5974	 -0.001500	  0.027000	  1.008500	   -0.390000	   -0.150000	    0.270000	   23.890625
    2.6074	 -0.002000	  0.026500	  1.008500	   -0.260000	   -0.170000	    0.270000	   23.882813
    2.6174	  0.000500	  0.025500	  1.006500	   -0.350000	   -0.170000	    0.310000	   23.902344
    2.6274	 -0.004000	  0.024000	  1.007500	   -0.430000	   -0.100000	    0.280000	   23.902344
    2.6374	 -0.008500	  0.023500	  1.009500	   -0.400000	   -0.140000	    0.220000	   23.898438
    2.6474	 -0.005000	  0.023500	  1.009000	   -0.450000	   -0.170000	    0.290000	   23.894531
    2.6574	 -0.003500	  0.024500	  1.010000	   -0.370000	   -0.190000	    0.200000	   23.906250
    2.6674	 -0.005500	  0.025000	  1.010500	   -0.490000	   -0.170000	    0.220000	   23.906250
    2.6774	 -0.002500	  0.025500	  1.008500	   -0.470000	   -0.190000	    0.310000	   23.898438
    2.6874	  0.000500	  0.025500	  1.010000	   -0.390000	   -0.240000	    0.300000	   23.906250
    2.6974	  0.001000	  0.025500	  1.006500	   -0.340000	   -0.120000	    0.230000	   23.890625
    2.7074	  0.001500	  0.026000	  1.007000	   -0.430000	   -0.170000	    0.300000	   23.890625
    2.7174	  0.004500	  0.026000	  1.010000	   -0.330000	   -0.090000	    0.290000	   23.917969
    2.7274	  0.003500	  0.026000	  1.006000	   -0.350000	   -0.210000	    0.260000	   23.871094
    2.7374	 -0.002000	  0.025000	  1.010000	   -0.210000	   -0.130000	    0.190000	   23.867188
    2.7474	  0.001500	  0.025500	  1.011500	   -0.430000	   -0.110000	    0.200000	   23.894531
    2.7574	  0.002000	  0.024500	  1.006000	   -0.360000	   -0.090000	    0.180000	   23.890625
    2.7674	 -0.001500	  0.026000	  1.009500	   -0.450000	   -0.070000	    0.130000	   23.886719
    2.7774	  0.002500	  0.026000	  1.007000	   -0.430000	   -0.120000	    0.210000	   23.898438
    2.7874	  0.004000	  0.024500	  1.007500	   -0.360000	   -0.300000	    0.240000	   23.890625
    2.7974	 -0.004000	  0.027500	  1.009000	   -0.460000	   -0.120000	    0.190000	   23.933594
    2.8074	 -0.002000	  0.025000	  1.006000	   -0.340000	   -0.150000	    0.210000	   23.933594
    2.8174	 -0.002000	  0.024500	  1.008500	   -0.360000	   -0.130000	    0.310000	   23.910156
    2.8274	 -0.006500	  0.024500	  1.007000	   -0.360000	   -0.120000	    0.180000	   23.906250
    2.8374	 -0.005500	  0.024500	  1.008000	   -0.440000	   -0.080000	    0.270000	   23.902344
    2.8474	 -0.006000	  0.024000	  1.009000	   -0.480000	   -0.270000	    0.210000	   23.906250
    2.8574	 -0.003500	  0.023500	  1.009000	   -0.390000	   -0.020000	    0.220000	   23.906250
    2.8674	 -0.003500	  0.026000	  1.008500	   -0.430000	   -0.180000	    0.290000	   23.906250
    2.8774	 -0.000500	  0.024500	  1.008500	   -0.480000	   -0.180000	    0.320000	   23.910156
    2.8874	  0.003500	  0.026000	  1.009500	   -0.450000	   -0.180000	    0.240000	   23.917969
    2.8974	  0.002500	  0.025000	  1.006000	   -0.390000	   -0.150000	    0.340000	   23.906250
    2.9074	  0.000500	  0.025500	  1.009500	   -0.340000	   -0.080000	    0.180000	   23.906250
    2.9174	  0.001500	  0.025000	  1.008000	   -0.390000	   -0.270000	    0.260000	   23.886719
    2.9274	  0.001000	  0.024000	  1.011500	   -0.420000	   -0.240000	    0.210000	   23.910156
    2.9374	  0.001000	  0.023500	  1.008500	   -0.370000	   -0.280000	    0.210000	   23.914063
    2.9474	  0.002500	  0.025500	  1.008500	   -0.330000	   -0.170000	    0.280000	   23.917969
    2.9577	  0.004000	  0.025500	  1.007500	   -0.310000	   -0.180000	    0.130000	   23.882813
    2.9674	  0.002000	  0.026500	  1.007000	   -0.530000	   -0.120000	    0.250000	   23.898438
    2.9774	 -0.000500	  0.025000	  1.009500	   -0.460000	   -0.170000	    0.290000	   23.914063
    2.9874	  0.000500	  0.026000	  1.007500	   -0.320000	   -0.140000	    0.180000	   23.890625
    2.9974	 -0.003000	  0.025500	  1.008000	   -0.330000	   -0.170000	    0.240000	   23.878906
    3.0074	 -0.004500	  0.025500	  1.009500	   -0.360000	   -0.260000	    0.230000	   23.878906
    3.0174	 -0.003500	  0.023500	  1.007000	   -0.440000	   -0.230000	    0.230000	   23.886719
    3.0274	 -0.005000	  0.023000	  1.009000	   -0.290000	   -0.190000	    0.280000	   23.906250
    3.0374	 -0.004000	  0.023500	  1.005000	   -0.350000	   -0.100000	    0.250000	   23.906250
    3.0474	 -0.002000	  0.025000	  1.007000	   -0.410000	   -0.250000	    0.270000	   23.894531
    3.0574	 -0.000500	  0.024500	  1.008500	   -0.320000	   -0.180000	    0.270000	   23.910156
    3.0674	  0.001500	  0.026500	  1.009500	   -0.410000	   -0.150000	    0.220000	   23.890625
    3.0774	  0.002500	  0.025500	  1.008000	   -0.400000	   -0.160000	    0.330000	   23.894531
    3.0874	  0.003500	  0.026000	  1.008000	   -0.340000	   -0.040000	    0.340000	   23.910156
    3.0974	  0.002500	  0.026500	  1.010000	   -0.390000	   -0.180000	    0.290000	   23.902344
    3.1074	  0.001500	  0.025500	  1.008500	   -0.310000	   -0.120000	    0.290000	   23.886719
    3.1174	  0.001000	  0.025000	  1.009500	   -0.290000	   -0.110000	    0.220000	   23.902344
    3.1274	  0.003000	  0.024500	  1.008500	   -0.380000	   -0.040000	    0.210000	   23.886719
    3.1374	  0.002000	  0.025500	  1.007500	   -0.360000	   -0.130000	    0.230000	   23.878906
    3.1474	  0.000000	  0.026500	  1.009000	   -0.400000	   -0.110000	    0.270000	   23.882813
    3.1574	  0.003000	  0.025500	  1.007000	   -0.340000	   -0.220000	    0.230000	   23.898438
    3.1674	  0.000500	  0.026500	  1.009500	   -0.470000	   -0.130000	    0.200000	   23.914063
    3.1774	 -0.003500	  0.025000	  1.008500	   -0.370000	   -0.230000	    0.250000	   23.902344
    3.1874	 -0.001000	  0.025500	  1.008500	   -0.370000	   -0.090000	    0.220000	   23.882813
    3.1974	 -0.001500	  0.024500	  1.011500	   -0.330000	   -0.140000	    0.250000	   23.894531
    3.2074	 -0.004500	  0.025000	  1.007500	   -0.370000	   -0.100000	    0.260000	   23.921875
    3.2174	 -0.003500	  0.025500	  1.009500	   -0.440000	   -0.100000	    0.230000	   23.917969
    3.2274	 -0.002000	  0.023000	  1.009000	   -0.400000	   -0.170000	    0.350000	   23.910156
    3.2374	 -0.000500	  0.025000	  1.010000	   -0.330000	   -0.060000	    0.280000	   23.902344
    3.2474	 -0.001500	  0.025000	  1.008500	   -0.470000	   -0.230000	    0.330000	   23.894531
    3.2574	  0.000500	  0.024000	  1.007500	   -0.440000	   -0.140000	    0.230000	   23.914063
    3.2674	  0.003500	  0.024500	  1.009000	   -0.400000	   -0.190000	    0.330000	   23.917969
    3.2774	  0.002500	  0.026000	  1.009000	   -0.390000	   -0.170000	    0.310000	   23.914063
    3.2874	  0.001000	  0.026500	  1.009500	   -0.340000	   -0.010000	    0.290000	   23.906250
    3.2974	  0.001000	  0.024500	  1.007500	   -0.430000	   -0.060000	    0.330000	   23.910156
    3.3074	  0.002000	  0.025500	  1.010000	   -0.340000	   -0.140000	    0.170000	   23.910156
    3.3174	  0.002000	  0.025500	  1.009000	   -0.470000	   -0.170000	    0.250000	   23.906250
    3.3274	  0.000500	  0.025500	  1.007000	   -0.450000	   -0.180000	    0.330000	   23.898438
    3.3374	  0.001500	  0.025500	  1.007500	   -0.310000	    0.020000	    0.150000	   23.921875
    3.3474	  0.002000	  0.026000	  1.007500	   -0.480000	   -0.160000	    0.300000	   23.914063
    3.3574	 -0.001500	  0.025000	  1.008500	   -0.340000	   -0.120000	    0.280000	   23.890625
    3.3674	 -0.001500	  0.025000	  1.007000	   -0.360000	   -0.090000	    0.200000	   23.910156
    3.3774	 -0.002500	  0.023500	  1.009000	   -0.300000	   -0.070000	    0.170000	   23.906250
    3.3874	 -0.004000	  0.024500	  1.006000	   -0.410000	    0.020000	    0.250000	   23.906250
    3.3974	 -0.004500	  0.024500	  1.008000	   -0.350000	   -0.140000	    0.100000	   23.906250
    3.4074	 -0.003000	  0.023500	  1.008500	   -0.380000	    0.050000	    0.250000	   23.921875
    3.4174	 -0.001500	  0.026000	  1.007000	   -0.380000	   -0.070000	    0.320000	   23.910156
    3.4274	 -0.002500	  0.026000	  1.009500	   -0.380000	   -0.140000	    0.310000	   23.917969
    3.4374	  0.000500	  0.026500	  1.008000	   -0.240000	   -0.120000	    0.180000	   23.941406
    3.4474	  0.002500	  0.024500	  1.006500	   -0.360000	   -0.200000	    0.340000	   23.917969
    3.4574	  0.000500	  0.026500	  1.009000	   -0.410000	   -0.190000	    0.280000	   23.906250
    3.4674	  0.001000	  0.025500	  1.009000	   -0.340000	   -0.060000	    0.130000	   23.898438
    3.4774	  0.001500	  0.027500	  1.009000	   -0.340000	   -0.090000	    0.270000	   23.878906
    3.4874	  0.000000	  0.024500	  1.008000	   -0.380000	   -0.060000	    0.110000	   23.882813
    3.4974	  0.000500	  0.026000	  1.009000	   -0.280000	   -0.160000	    0.280000	   23.890625
    3.5075	  0.003000	  0.026000	  1.008000	   -0.350000	   -0.070000	    0.200000	   23.902344
    3.5174	  0.001500	  0.026500	  1.007000	   -0.290000	    0.000000	    0.180000	   23.925781
    3.5274	  0.001500	  0.025500	  1.009500	   -0.390000	   -0.080000	    0.220000	   23.933594
    3.5374	  0.000000	  0.025000	  1.005500	   -0.400000	   -0.300000	    0.150000	   23.910156
    3.5474	 -0.003500	  0.025000	  1.008500	   -0.440000	   -0.110000	    0.120000	   23.921875
    3.5574	 -0.003500	  0.025500	  1.009000	   -0.320000	   -0.160000	    0.340000	   23.921875
    3.5674	 -0.001000	  0.024000	  1.007500	   -0.510000	   -0.170000	    0.320000	   23.898438
    3.5774	 -0.004500	  0.024500	  1.009500	   -0.290000	   -0.120000	    0.200000	   23.906250
    3.5874	 -0.004000	  0.025500	  1.010000	   -0.420000	   -0.190000	    0.250000	   23.921875
    3.5974	  0.000000	  0.024000	  1.009500	   -0.320000	   -0.050000	    0.230000	   23.898438
    3.6075	 -0.002000	  0.023500	  1.008000	   -0.300000	   -0.190000	    0.200000	   23.898438
    3.6174	 -0.003000	  0.026000	  1.009000	   -0.480000	   -0.170000	    0.200000	   23.929688
    3.6274	  0.001500	  0.023500	  1.006000	   -0.390000	    0.010000	    0.270000	   23.921875
    3.6374	  0.002500	  0.024500	  1.008000	   -0.470000	   -0.060000	    0.270000	   23.906250
    3.6474	  0.000500	  0.025500	  1.008000	   -0.350000	   -0.180000	    0.270000	   23.921875
    3.6574	  0.000000	  0.026500	  1.008000	   -0.460000	   -0.210000	    0.160000	   23.925781
    3.6674	  0.001500	  0.026000	  1.009000	   -0.380000	   -0.040000	    0.280000	   23.910156
    3.6774	  0.000000	  0.026500	  1.007500	   -0.530000	   -0.180000	    0.310000	   23.910156
    3.6874	 -0.001000	  0.025000	  1.008500	   -0.410000	   -0.210000	    0.240000	   23.906250
    3.6974	  0.000500	  0.026000	  1.009500	   -0.240000	   -0.060000	    0.210000	   23.921875
    3.7075	  0.002500	  0.024500	  1.006500	   -0.420000	   -0.260000	    0.400000	   23.933594
    3.7174	  0.002000	  0.026500	  1.009000	   -0.410000	   -0.170000	    0.220000	   23.925781
    3.7274	  0.002500	  0.025000	  1.005500	   -0.420000	   -0.130000	    0.270000	   23.925781
    3.7374	  0.001000	  0.025500	  1.008000	   -0.490000	   -0.180000	    0.180000	   23.917969
    3.7474	 -0.002000	  0.026000	  1.010500	   -0.240000	   -0.110000	    0.260000	   23.906250
    3.7574	 -0.003000	  0.025000	  1.007500	   -0.390000	   -0.220000	    0.200000	   23.929688
    3.7674	 -0.004000	  0.025000	  1.010500	   -0.340000	   -0.230000	    0.240000	   23.925781
    3.7774	 -0.004000	  0.025000	  1.010000	   -0.410000	   -0.280000	    0.260000	   23.906250
    3.7874	 -0.003000	  0.025500	  1.007500	   -0.370000	   -0.170000	    0.280000	   23.914063
    3.7974	 -0.002000	  0.026000	  1.010500	   -0.460000	   -0.230000	    0.200000	   23.933594
    3.8075	  0.000500	  0.024000	  1.007500	   -0.390000	   -0.180000	    0.330000	   23.910156
    3.8174	 -0.001000	  0.026000	  1.009000	   -0.470000	   -0.280000	    0.260000	   23.925781
    3.8274	  0.000000	  0.025500	  1.008000	   -0.410000	   -0.180000	    0.190000	   23.921875
    3.8374	  0.003500	  0.025000	  1.008500	   -0.420000	   -0.200000	    0.300000	   23.929688
    3.8474	  0.001500	  0.026000	  1.009000	   -0.280000	   -0.030000	    0.210000	   23.937500
    3.8574	 -0.001500	  0.025000	  1.009500	   -0.320000	   -0.100000	    0.280000	   23.921875
    3.8674	  0.000000	  0.023500	  1.011000	   -0.370000	   -0.140000	    0.190000	   23.921875
    3.8774	  0.002500	  0.024500	  1.008000	   -0.420000	    0.040000	    0.260000	   23.914063
    3.8874	  0.002000	  0.024500	  1.007000	   -0.410000	   -0.040000	    0.320000	   23.917969
    3.8974	  0.003000	  0.027000	  1.009000	   -0.360000	   -0.160000	    0.260000	   23.925781
    3.9074	  0.004500	  0.026500	  1.007500	   -0.330000	   -0.050000	    0.300000	   23.945313
    3.9174	  0.000500	  0.028000	  1.008500	   -0.350000	   -0.240000	    0.330000	   23.917969
    3.9274	 -0.000500	  0.026500	  1.007500	   -0.430000	   -0.140000	    0.270000	   23.902344
    3.9374	 -0.000500	  0.025500	  1.008500	   -0.410000	   -0.120000	    0.160000	   23.914063
    3.9474	 -0.005000	  0.024000	  1.008500	   -0.360000	   -0.200000	    0.210000	   23.925781
    3.9578	 -0.004500	  0.024000	  1.008000	   -0.370000	   -0.140000	    0.230000	   23.925781
    3.9674	 -0.002500	  0.025000	  1.008000	   -0.340000	   -0.050000	    0.240000	   23.906250
    3.9774	 -0.004000	  0.024500	  1.009500	   -0.360000	   -0.240000	    0.270000	   23.917969
    3.9874	 -0.002500	  0.026000	  1.009000	   -0.410000	   -0.190000	    0.300000	   23.917969
    3.9974	  0.000500	  0.025000	  1.007000	   -0.400000	   -0.200000	    0.340000	   23.914063
    4.0075	  0.000000	  0.025000	  1.010000	   -0.330000	   -0.280000	    0.350000	   23.921875
    4.0174	  0.000500	  0.025000	  1.006500	   -0.440000	   -0.100000	    0.240000	   23.964844
    4.0274	  0.003500	  0.024000	  1.008000	   -0.390000	   -0.140000	    0.330000	   23.960938
    4.0374	  0.002500	  0.025500	  1.011000	   -0.350000	   -0.050000	    0.280000	   23.917969
    4.0475	  0.000000	  0.025500	  1.007500	   -0.480000	   -0.100000	    0.240000	   23.937500
    4.0574	  0.002000	  0.025500	  1.011000	   -0.440000	   -0.170000	    0.270000	   23.921875
    4.0675	  0.005500	  0.025000	  1.008500	   -0.360000	   -0.090000	    0.280000	   23.910156
    4.0774	  0.004000	  0.027500	  1.007500	   -0.550000	   -0.030000	    0.400000	   23.921875
    4.0874	  0.004000	  0.025500	  1.008500	   -0.370000	   -0.080000	    0.230000	   23.921875
    4.0974	  0.001500	  0.027500	  1.009500	   -0.300000	   -0.120000	    0.150000	   23.929688
    4.1075	 -0.000500	  0.027000	  1.007500	   -0.410000	   -0.100000	    0.260000	   23.902344
    4.1175	 -0.001500	  0.025500	  1.007500	   -0.510000	    0.020000	    0.280000	   23.921875
    4.1275	 -0.005000	  0.024000	  1.006000	   -0.240000	   -0.190000	    0.270000	   23.937500
    4.1375	 -0.005500	  0.024000	  1.009500	   -0.360000	   -0.160000	    0.250000	   23.914063
    4.1475	 -0.003500	  0.023000	  1.006000	   -0.480000	   -0.030000	    0.350000	   23.933594
    4.1575	 -0.004500	  0.023000	  1.008500	   -0.320000	   -0.140000	    0.160000	   23.945313
    4.1675	 -0.005500	  0.024500	  1.009000	   -0.450000	   -0.180000	    0.290000	   23.914063
    4.1775	 -0.002000	  0.026500	  1.005500	   -0.430000	   -0.170000	    0.320000	   23.941406
    4.1875	 -0.000500	  0.026000	  1.011000	   -0.340000	   -0.200000	    0.350000	   23.921875
    4.1975	  0.002000	  0.026000	  1.006500	   -0.350000	   -0.100000	    0.340000	   23.949219
    4.2075	  0.002500	  0.026500	  1.006500	   -0.400000	   -0.200000	    0.230000	   23.933594
    4.2175	  0.001000	  0.026000	  1.008500	   -0.370000	   -0.080000	    0.330000	   23.906250
    4.2275	  0.002000	  0.027500	  1.006500	   -0.360000	   -0.210000	    0.260000	   23.902344
    4.2375	 -0.000500	  0.026000	  1.008500	   -0.320000	   -0.130000	    0.270000	   23.917969
    4.2475	  0.001500	  0.026500	  1.011000	   -0.360000	   -0.170000	    0.260000	   23.929688
    4.2575	  0.001500	  0.026000	  1.008000	   -0.430000	   -0.140000	    0.250000	   23.925781
    4.2675	  0.001000	  0.025000	  1.007500	   -0.420000	   -0.160000	    0.280000	   23.910156
    4.2775	  0.003500	  0.025000	  1.008000	   -0.430000	   -0.060000	    0.220000	   23.917969
    4.2875	  0.001500	  0.024500	  1.005500	   -0.310000	   -0.070000	    0.210000	   23.929688
    4.2975	 -0.003000	  0.025500	  1.007000	   -0.340000	   -0.070000	    0.130000	   23.929688
    4.3075	 -0.000500	  0.023500	  1.008000	   -0.330000	   -0.150000	    0.200000	   23.929688
    4.3175	 -0.002000	  0.022500	  1.009500	   -0.360000	   -0.040000	    0.200000	   23.914063
    4.3275	 -0.006000	  0.024000	  1.010500	   -0.400000	   -0.140000	    0.190000	   23.933594
    4.3375	 -0.004000	  0.024500	  1.009000	   -0.410000	   -0.050000	    0.260000	   23.941406
    4.3475	 -0.004000	  0.025000	  1.008000	   -0.500000	   -0.210000	    0.220000	   23.921875
    4.3575	 -0.003000	  0.025000	  1.010500	   -0.320000	   -0.100000	    0.240000	   23.917969
    4.3675	 -0.001500	  0.024000	  1.009000	   -0.460000	   -0.150000	    0.290000	   23.933594
    4.3775	  0.001000	  0.026000	  1.007500	   -0.460000	   -0.160000	    0.190000	   23.941406
    4.3875	  0.002500	  0.024500	  1.007000	   -0.510000	   -0.170000	    0.230000	   23.929688
    4.3975	  0.001500	  0.026000	  1.007500	   -0.380000	   -0.260000	    0.250000	   23.925781
    4.4075	  0.002500	  0.026000	  1.008500	   -0.570000	   -0.250000	    0.370000	   23.917969
    4.4175	  0.001500	  0.025500	  1.008500	   -0.330000	   -0.160000	    0.120000	   23.921875
    4.4275	 -0.000500	  0.025500	  1.009000	   -0.340000	   -0.150000	    0.260000	   23.933594
    4.4375	  0.000000	  0.026500	  1.010500	   -0.430000	   -0.080000	    0.200000	   23.941406
    4.4475	  0.003500	  0.026500	  1.006500	   -0.500000	   -0.070000	    0.270000	   23.941406
    4.4575	  0.002000	  0.027000	  1.007500	   -0.320000	   -0.160000	    0.220000	   23.937500
    4.4675	  0.000500	  0.026500	  1.008500	   -0.270000	   -0.090000	    0.160000	   23.921875
    4.4775	  0.001000	  0.026500	  1.007000	   -0.440000	   -0.220000	    0.230000	   23.910156
    4.4875	 -0.001000	  0.026000	  1.008500	   -0.250000	   -0.150000	    0.290000	   23.921875
    4.4975	 -0.001500	  0.026500	  1.007500	   -0.300000	   -0.130000	    0.220000	   23.910156
    4.5075	 -0.003000	  0.026500	  1.008000	   -0.370000	   -0.190000	    0.260000	   23.941406
    4.5175	 -0.001500	  0.026500	  1.008000	   -0.410000	   -0.040000	    0.190000	   23.933594
    4.5275	 -0.003000	  0.025000	  1.005500	   -0.450000	   -0.180000	    0.130000	   23.906250
    4.5375	 -0.003500	  0.025500	  1.009500	   -0.330000	   -0.100000	    0.300000	   23.906250
    4.5475	 -0.001000	  0.025000	  1.009500	   -0.480000	   -0.140000	    0.330000	   23.949219
    4.5575	  0.002000	  0.025500	  1.010500	   -0.370000	   -0.080000	    0.160000	   23.941406
    4.5675	 -0.001500	  0.024500	  1.005500	   -0.410000	   -0.160000	    0.270000	   23.941406
    4.5775	  0.000500	  0.023500	  1.011000	   -0.420000	   -0.160000	    0.200000	   23.929688
    4.5875	  0.003000	  0.024000	  1.007000	   -0.440000	   -0.180000	    0.270000	   23.929688
    4.5975	  0.002000	  0.026500	  1.007500	   -0.450000	   -0.190000	    0.270000	   23.921875
    4.6075	 -0.000500	  0.023500	  1.012000	   -0.440000	   -0.220000	    0.340000	   23.910156
    4.6175	  0.002000	  0.025500	  1.010000	   -0.370000	   -0.160000	    0.180000	   23.925781
    4.6275	  0.000500	  0.024000	  1.008500	   -0.400000	   -0.120000	    0.210000	   23.921875
    4.6375	 -0.003500	  0.025500	  1.010500	   -0.520000	   -0.150000	    0.180000	   23.921875
    4.6475	 -0.001500	  0.025000	  1.008000	   -0.400000	   -0.130000	    0.290000	   23.957031
    4.6575	 -0.001000	  0.025000	  1.007500	   -0.340000	   -0.140000	    0.200000	   23.960938
    4.6675	 -0.004000	  0.024500	  1.009500	   -0.420000	   -0.180000	    0.310000	   23.921875
    4.6775	 -0.003000	  0.024000	  1.009000	   -0.480000	   -0.010000	    0.380000	   23.902344
    4.6875	  0.002000	  0.024000	  1.006000	   -0.380000	   -0.130000	    0.360000	   23.925781
    4.6975	 -0.001000	  0.023500	  1.007500	   -0.280000	   -0.260000	    0.290000	   23.941406
    4.7075	 -0.002000	  0.025500	  1.007500	   -0.520000	   -0.160000	    0.310000	   23.925781
    4.7175	  0.002000	  0.025000	  1.005500	   -0.410000	   -0.040000	    0.280000	   23.906250
    4.7275	  0.001500	  0.024500	  1.007500	   -0.300000	   -0.190000	    0.200000	   23.933594
    4.7375	 -0.001500	  0.025500	  1.009000	   -0.330000	   -0.090000	    0.340000	   23.921875
    4.7475	 -0.000500	  0.025500	  1.006500	   -0.320000	    0.020000	    0.190000	   23.933594
    4.7575	  0.001500	  0.026000	  1.009500	   -0.300000	   -0.160000	    0.220000	   23.941406
    4.7675	 -0.001500	  0.025500	  1.009500	   -0.390000	   -0.160000	    0.310000	   23.945313
    4.7775	 -0.000500	  0.027000	  1.007000	   -0.320000	   -0.110000	    0.220000	   23.949219
    4.7875	  0.002000	  0.027000	  1.008000	   -0.400000	   -0.150000	    0.190000	   23.929688
    4.7975	  0.000500	  0.027000	  1.010000	   -0.320000	   -0.120000	    0.190000	   23.945313
    4.8075	 -0.001500	  0.025000	  1.006500	   -0.420000	   -0.160000	    0.210000	   23.960938
    4.8175	  0.001000	  0.025500	  1.008000	   -0.510000	   -0.090000	    0.330000	   23.949219
    4.8275	  0.000500	  0.024500	  1.008000	   -0.370000	   -0.210000	    0.170000	   23.968750
    4.8375	 -0.001500	  0.024000	  1.009500	   -0.420000	   -0.060000	    0.200000	   23.949219
    4.8475	 -0.001000	  0.023500	  1.005500	   -0.290000	   -0.160000	    0.200000	   23.949219
    4.8575	 -0.000500	  0.023500	  1.009500	   -0.300000	   -0.160000	    0.210000	   23.957031
    4.8675	 -0.002000	  0.025000	  1.011500	   -0.410000	   -0.130000	    0.270000	   23.941406
    4.8775	 -0.002000	  0.024000	  1.006500	   -0.370000	   -0.210000	    0.350000	   23.949219
    4.8875	  0.000500	  0.027000	  1.008500	   -0.420000	   -0.260000	    0.250000	   23.941406
    4.8975	 -0.000500	  0.025500	  1.009500	   -0.310000	   -0.020000	    0.270000	   23.929688
    4.9075	  0.000000	  0.026000	  1.004500	   -0.350000	   -0.130000	    0.170000	   23.941406
    4.9175	  0.001000	  0.025500	  1.009500	   -0.340000	   -0.090000	    0.210000	   23.941406
    4.9275	  0.001000	  0.026000	  1.010000	   -0.420000	   -0.120000	    0.290000	   23.925781
    4.9375	  0.001500	  0.027000	  1.007000	   -0.440000	   -0.240000	    0.290000	   23.949219
    4.9475	  0.001000	  0.026000	  1.010000	   -0.280000	   -0.020000	    0.220000	   23.957031
    4.9578	  0.001000	  0.024500	  1.009000	   -0.310000	   -0.080000	    0.080000	   23.953125
    4.9675	  0.002000	  0.025500	  1.006000	   -0.380000	   -0.130000	    0.220000	   23.929688
    4.9775	  0.000500	  0.024500	  1.009000	   -0.400000	   -0.170000	    0.270000	   23.925781
    4.9875	  0.000000	  0.026000	  1.008000	   -0.260000	   -0.070000	    0.190000	   23.949219
    4.9975	  0.000500	  0.025500	  1.008500	   -0.420000	   -0.190000	    0.300000	   23.949219
    5.0075	 -0.000500	  0.025000	  1.009000	   -0.340000	   -0.140000	    0.330000	   23.953125
    5.0175	 -0.001000	  0.025000	  1.011000	   -0.370000	   -0.220000	    0.250000	   23.953125
    5.0275	 -0.001000	  0.024500	  1.007500	   -0.510000	   -0.160000	    0.200000	   23.921875
    5.0375	  0.000500	  0.025500	  1.007000	   -0.460000	   -0.180000	    0.320000	   23.937500
    5.0475	 -0.000500	  0.025500	  1.011500	   -0.310000	   -0.120000	    0.190000	   23.945313
    5.0575	  0.000000	  0.026000	  1.006500	   -0.340000	   -0.150000	    0.250000	   23.937500
    5.0675	  0.000500	  0.025500	  1.006500	   -0.430000	   -0.190000	    0.360000	   23.917969
    5.0775	  0.001000	  0.025500	  1.010000	   -0.410000	   -0.060000	    0.220000	   23.933594
    5.0875	  0.001000	  0.024500	  1.006000	   -0.340000	    0.020000	    0.200000	   23.960938
    5.0975	  0.001500	  0.024000	  1.008500	   -0.470000	   -0.110000	    0.250000	   23.941406
    5.1076	  0.001000	  0.025000	  1.009000	   -0.430000	   -0.120000	    0.280000	   23.933594
    5.1175	  0.000500	  0.024500	  1.005500	   -0.350000	   -0.160000	    0.160000	   23.949219
    5.1275	  0.000500	  0.025500	  1.010500	   -0.420000	   -0.120000	    0.230000	   23.949219
    5.1375	 -0.000500	  0.023500	  1.009000	   -0.420000	   -0.200000	    0.280000	   23.945313
    5.1475	 -0.002500	  0.025500	  1.007500	   -0.470000	   -0.090000	    0.220000	   23.960938
    5.1575	 -0.000500	  0.024500	  1.008500	   -0.280000	   -0.110000	    0.250000	   23.949219
    5.1675	 -0.002000	  0.025000	  1.009000	   -0.530000	   -0.110000	    0.370000	   23.937500
    5.1775	 -0.002000	  0.024000	  1.005000	   -0.360000	   -0.170000	    0.250000	   23.949219
    5.1875	 -0.001000	  0.025500	  1.008500	   -0.260000	   -0.090000	    0.250000	   23.945313
    5.1975	  0.000500	  0.026000	  1.008000	   -0.330000	   -0.220000	    0.150000	   23.945313
    5.2076	 -0.001000	  0.026500	  1.007000	   -0.330000	   -0.160000	    0.330000	   23.941406
    5.2175	  0.000500	  0.026000	  1.008000	   -0.310000	   -0.030000	    0.170000	   23.925781
    5.2275	  0.000500	  0.025500	  1.008000	   -0.370000	   -0.070000	    0.330000	   23.957031
    5.2375	 -0.000500	  0.026500	  1.005500	   -0.320000	   -0.130000	    0.190000	   23.949219
    5.2475	 -0.001500	  0.025000	  1.008000	   -0.470000	   -0.040000	    0.240000	   23.953125
    5.2575	  0.000000	  0.025500	  1.008000	   -0.300000	    0.010000	    0.220000	   23.933594
    5.2675	 -0.001000	  0.025500	  1.006500	   -0.310000	    0.000000	    0.220000	   23.937500
    5.2775	 -0.001500	  0.026000	  1.008500	   -0.290000	   -0.100000	    0.270000	   23.957031
    5.2875	 -0.000500	  0.026000	  1.008500	   -0.470000	   -0.210000	    0.330000	   23.953125
    5.2975	 -0.001000	  0.025000	  1.007000	   -0.390000	   -0.160000	    0.250000	   23.933594
    5.3076	 -0.001500	  0.025500	  1.009000	   -0.390000	   -0.140000	    0.230000	   23.933594
    5.3175	 -0.000500	  0.025500	  1.007500	   -0.310000	   -0.110000	    0.160000	   23.941406
    5.3275	 -0.001000	  0.024500	  1.008000	   -0.310000	   -0.240000	    0.150000	   23.941406
    5.3375	 -0.001000	  0.025000	  1.009000	   -0.350000	   -0.160000	    0.190000	   23.937500
    5.3475	 -0.001000	  0.025000	  1.009000	   -0.500000	   -0.070000	    0.250000	   23.957031
    5.3575	  0.000500	  0.025500	  1.008000	   -0.440000	   -0.150000	    0.270000	   23.957031
    5.3675	 -0.001000	  0.025000	  1.008500	   -0.480000	   -0.050000	    0.270000	   23.949219
    5.3775	  0.000000	  0.025000	  1.008000	   -0.390000	   -0.130000	    0.240000	   23.945313
    5.3875	 -0.001000	  0.025000	  1.009500	   -0.370000	   -0.060000	    0.250000	   23.957031
    5.3975	  0.000000	  0.025000	  1.006500	   -0.370000	   -0.240000	    0.190000	   23.960938
    5.4076	 -0.001000	  0.025000	  1.009000	   -0.380000	   -0.170000	    0.220000	   23.953125
    5.4175	  0.000000	  0.025500	  1.009000	   -0.400000	   -0.120000	    0.250000	   23.949219
    5.4275	  0.001000	  0.025500	  1.008500	   -0.410000	   -0.180000	    0.240000	   23.945313
    5.4375	 -0.000500	  0.026000	  1.008000	   -0.380000	   -0.150000	    0.180000	   23.910156
    5.4475	  0.001000	  0.025500	  1.008000	   -0.390000	   -0.150000	    0.330000	   23.941406
    5.4575	  0.002000	  0.025500	  1.008000	   -0.470000	   -0.150000	    0.410000	   23.945313
    5.4675	  0.001000	  0.024500	  1.008500	   -0.420000	   -0.190000	    0.270000	   23.957031
    5.4775	 -0.000500	  0.025500	  1.009500	   -0.520000	   -0.190000	    0.280000	   23.945313
    5.4875	  0.000000	  0.026000	  1.009000	   -0.270000	   -0.010000	    0.120000	   23.949219
    5.4975	  0.000500	  0.025000	  1.009000	   -0.390000	   -0.080000	    0.210000	   23.964844
    5.5076	 -0.001000	  0.026500	  1.008000	   -0.310000	   -0.120000	    0.290000	   23.960938
    5.5175	 -0.000500	  0.024500	  1.007500	   -0.420000	   -0.070000	    0.290000	   23.945313
    5.5275	  0.001500	  0.025000	  1.009000	   -0.460000	   -0.270000	    0.270000	   23.933594
    5.5375	 -0.000500	  0.025000	  1.008500	   -0.500000	   -0.110000	    0.180000	   23.921875
    5.5475	  0.000000	  0.025500	  1.009000	   -0.380000	   -0.120000	    0.250000	   23.957031
    5.5575	  0.001000	  0.024500	  1.009500	   -0.310000	   -0.150000	    0.220000	   23.933594
    5.5676	  0.000000	  0.025500	  1.009000	   -0.410000	   -0.100000	    0.230000	   23.937500
    5.5775	  0.000000	  0.025500	  1.007000	   -0.430000	   -0.120000	    0.310000	   23.949219
    5.5875	  0.001500	  0.024500	  1.009000	   -0.290000	   -0.190000	    0.310000	   23.960938
    5.5975	  0.000000	  0.026000	  1.007000	   -0.410000	   -0.140000	    0.330000	   23.953125
    5.6076	  0.000500	  0.025000	  1.009500	   -0.340000	   -0.110000	    0.190000	   23.972656
    5.6175	  0.001000	  0.026000	  1.007000	   -0.410000	   -0.170000	    0.250000	   23.945313
    5.6275	  0.001500	  0.025500	  1.006500	   -0.430000	   -0.170000	    0.270000	   23.929688
    5.6375	  0.000000	  0.025500	  1.009000	   -0.350000	   -0.070000	    0.280000	   23.941406
    5.6475	 -0.000500	  0.024500	  1.007000	   -0.410000	   -0.120000	    0.280000	   23.949219
    5.6575	 -0.000500	  0.025000	  1.008500	   -0.420000	   -0.190000	    0.270000	   23.960938
    5.6676	  0.000000	  0.025000	  1.008500	   -0.340000	   -0.090000	    0.280000	   23.972656
    5.6776	  0.000000	  0.026000	  1.006500	   -0.390000	   -0.130000	    0.230000	   23.964844
    5.6875	  0.000500	  0.025000	  1.008000	   -0.370000	   -0.130000	    0.180000	   23.949219
    5.6975	  0.000000	  0.024000	  1.008000	   -0.390000	   -0.120000	    0.230000	   23.953125
    5.7076	  0.000000	  0.025500	  1.006500	   -0.380000	   -0.070000	    0.210000	   23.957031
    5.7176	 -0.001000	  0.026000	  1.008000	   -0.430000	   -0.230000	    0.240000	   23.964844
    5.7275	 -0.001000	  0.025000	  1.009000	   -0.390000	   -0.080000	    0.200000	   23.968750
    5.7376	 -0.000500	  0.025500	  1.006500	   -0.340000	   -0.110000	    0.230000	   23.968750
    5.7476	  0.000000	  0.025000	  1.008500	   -0.450000	   -0.040000	    0.320000	   23.949219
    5.7576	 -0.001500	  0.025500	  1.007500	   -0.390000	   -0.110000	    0.210000	   23.937500
    5.7676	 -0.000500	  0.025000	  1.008000	   -0.380000	   -0.140000	    0.180000	   23.968750
    5.7776	 -0.002000	  0.025000	  1.007000	   -0.370000	   -0.250000	    0.280000	   23.968750
    5.7875	 -0.001000	  0.024500	  1.007000	   -0.480000	   -0.180000	    0.230000	   23.964844
    5.7976	 -0.001000	  0.024500	  1.008500	   -0.340000	   -0.010000	    0.310000	   23.957031
    5.8076	 -0.001000	  0.024500	  1.009000	   -0.380000	   -0.090000	    0.280000	   23.937500
    5.8176	 -0.001000	  0.026000	  1.007500	   -0.360000	   -0.080000	    0.320000	   23.957031
    5.8276	 -0.001500	  0.024500	  1.007000	   -0.430000	   -0.090000	    0.340000	   23.964844
    5.8376	 -0.001500	  0.025500	  1.008000	   -0.310000	   -0.050000	    0.230000	   23.941406
    5.8476	 -0.001000	  0.026000	  1.008000	   -0.340000	   -0.170000	    0.280000	   23.953125
    5.8576	 -0.001500	  0.026000	  1.006500	   -0.350000	   -0.120000	    0.190000	   23.957031
    5.8676	 -0.002000	  0.026000	  1.009000	   -0.410000	   -0.240000	    0.210000	   23.957031
    5.8776	  0.000000	  0.024500	  1.006500	   -0.300000	   -0.010000	    0.300000	   23.953125
    5.8876	 -0.001000	  0.025000	  1.007500	   -0.280000	   -0.240000	    0.260000	   23.964844
    5.8976	 -0.000500	  0.026000	  1.009000	   -0.470000	   -0.090000	    0.210000	   23.953125
    5.9076	  0.000500	  0.026500	  1.008500	   -0.430000	   -0.210000	    0.150000	   23.937500
    5.9176	  0.000500	  0.025500	  1.008000	   -0.370000	   -0.210000	    0.230000	   23.964844
    5.9276	  0.000000	  0.025500	  1.008500	   -0.360000	   -0.180000	    0.240000	   23.945313
    5.9376	 -0.000500	  0.024000	  1.008500	   -0.380000	   -0.100000	    0.220000	   23.945313
    5.9476	 -0.000500	  0.025000	  1.007000	   -0.360000	   -0.130000	    0.240000	   23.960938
    5.9579	  0.000500	  0.024500	  1.008000	   -0.380000	   -0.190000	    0.180000	   23.976563
    5.9676	  0.001000	  0.026000	  1.010500	   -0.360000	   -0.100000	    0.230000	   23.980469
    5.9776	 -0.001000	  0.024500	  1.007000	   -0.320000	   -0.020000	    0.280000	   23.980469
    5.9876	  0.000000	  0.025000	  1.010000	   -0.320000	   -0.070000	    0.270000	   23.968750
    5.9976	  0.000500	  0.025500	  1.009000	   -0.350000	   -0.170000	    0.270000	   23.953125
    6.0076	  0.000000	  0.025000	  1.008000	   -0.430000	   -0.330000	    0.310000	   23.957031
    6.0176	  0.000000	  0.026000	  1.009500	   -0.380000	   -0.150000	    0.190000	   23.953125
    6.0276	  0.000000	  0.026000	  1.010000	   -0.360000	   -0.040000	    0.290000	   23.980469
    6.0376	  0.000000	  0.025500	  1.005500	   -0.350000	   -0.120000	    0.200000	   23.976563
    6.0476	  0.000000	  0.025500	  1.010000	   -0.380000	   -0.200000	    0.220000	   23.960938
    6.0576	  0.000000	  0.024500	  1.008500	   -0.400000	   -0.260000	    0.080000	   23.960938
    6.0676	  0.000000	  0.025500	  1.006500	   -0.290000	   -0.020000	    0.230000	   23.960938
    6.0776	 -0.000500	  0.024500	  1.010000	   -0.430000	   -0.110000	    0.240000	   23.953125
    6.0876	  0.000500	  0.023500	  1.007500	   -0.380000	   -0.110000	    0.250000	   23.964844
    6.0976	  0.000000	  0.025500	  1.007500	   -0.300000	   -0.050000	    0.210000	   23.980469
    6.1076	  0.000000	  0.025500	  1.009500	   -0.420000	   -0.100000	    0.150000	   23.964844
    6.1176	  0.000500	  0.025000	  1.008500	   -0.410000	   -0.180000	    0.210000	   23.968750
    6.1276	  0.000500	  0.025000	  1.007500	   -0.380000	   -0.060000	    0.260000	   23.964844
    6.1376	  0.000000	  0.024500	  1.008500	   -0.370000	   -0.130000	    0.270000	   23.960938
    6.1476	  0.000000	  0.025500	  1.007000	   -0.570000	   -0.110000	    0.270000	   23.968750
    6.1576	 -0.000500	  0.025500	  1.007000	   -0.560000	   -0.170000	    0.220000	   23.964844
    6.1676	  0.000000	  0.026500	  1.009000	   -0.290000	   -0.130000	    0.260000	   23.980469
    6.1776	  0.000000	  0.025000	  1.007000	   -0.510000	   -0.190000	    0.360000	   24.000000
    6.1876	  0.000000	  0.025000	  1.009500	   -0.390000	   -0.040000	    0.370000	   23.953125
    6.1976	 -0.000500	  0.024000	  1.007000	   -0.310000	   -0.030000	    0.180000	   23.949219
    6.2076	  0.000000	  0.025000	  1.009000	   -0.330000	   -0.060000	    0.260000	   23.960938
    6.2176	  0.000500	  0.025000	  1.007000	   -0.410000	   -0.150000	    0.300000	   23.972656
    6.2276	 -0.001000	  0.027000	  1.008000	   -0.320000	   -0.160000	    0.230000	   23.968750
    6.2376	  0.000000	  0.026500	  1.007000	   -0.490000	   -0.140000	    0.270000	   23.957031
    6.2476	  0.000500	  0.025500	  1.007500	   -0.380000	   -0.150000	    0.310000	   23.976563
    6.2576	 -0.000500	  0.025000	  1.009000	   -0.370000	   -0.170000	    0.230000	   23.964844
    6.2676	 -0.000500	  0.024500	  1.008000	   -0.390000	   -0.180000	    0.320000	   23.964844
    6.2776	  0.000000	  0.025000	  1.008000	   -0.420000	   -0.240000	    0.220000	   23.976563
    6.2876	 -0.001000	  0.025500	  1.009000	   -0.460000	   -0.240000	    0.240000	   23.972656
    6.2976	 -0.000500	  0.025500	  1.007000	   -0.310000	   -0.050000	    0.290000	   23.960938
    6.3076	 -0.000500	  0.026500	  1.009500	   -0.300000	   -0.140000	    0.210000	   23.960938
    6.3176	 -0.001000	  0.025500	  1.008000	   -0.300000	   -0.110000	    0.180000	   23.988281
    6.3276	 -0.001500	  0.025500	  1.006000	   -0.360000	   -0.160000	    0.200000	   23.976563
    6.3376	 -0.001500	  0.023500	  1.010000	   -0.380000	   -0.070000	    0.220000	   23.957031
    6.3476	 -0.000500	  0.026000	  1.009000	   -0.370000	   -0.100000	    0.290000	   23.972656
    6.3576	  0.000000	  0.025500	  1.007000	   -0.330000	   -0.190000	    0.250000	   23.980469
    6.3676	 -0.001000	  0.025000	  1.009500	   -0.400000	   -0.200000	    0.180000	   23.984375
    6.3776	  0.000000	  0.025500	  1.009000	   -0.390000	   -0.160000	    0.270000	   23.968750
    6.3876	 -0.000500	  0.026500	  1.007500	   -0.470000	   -0.170000	    0.230000	   23.941406
    6.3976	 -0.000500	  0.025500	  1.009000	   -0.360000	    0.000000	    0.150000	   23.972656
    6.4076	 -0.000500	  0.026500	  1.010000	   -0.340000	   -0.190000	    0.190000	   23.968750
    6.4176	 -0.000500	  0.025000	  1.007000	   -0.470000	   -0.140000	    0.250000	   23.957031
    6.4276	 -0.000500	  0.025000	  1.011000	   -0.440000	   -0.210000	    0.280000	   23.964844
    6.4376	 -0.001000	  0.024500	  1.007500	   -0.420000	   -0.240000	    0.310000	   23.972656
    6.4476	  0.000000	  0.025000	  1.006500	   -0.410000	   -0.280000	    0.270000	   23.949219
    6.4576	  0.000000	  0.025000	  1.009500	   -0.390000	   -0.130000	    0.150000	   23.937500
    6.4676	 -0.000500	  0.025500	  1.008000	   -0.450000	   -0.210000	    0.300000	   23.949219
    6.4776	  0.000000	  0.026000	  1.007500	   -0.380000	   -0.110000	    0.230000	   23.960938
    6.4876	 -0.000500	  0.025000	  1.010000	   -0.450000	   -0.040000	    0.240000	   23.968750
    6.4976	 -0.001000	  0.025000	  1.008500	   -0.400000	   -0.100000	    0.270000	   23.949219
    6.5076	  0.000000	  0.025500	  1.006000	   -0.400000	   -0.010000	    0.110000	   23.972656
    6.5176	  0.000500	  0.024500	  1.009000	   -0.320000	   -0.120000	    0.170000	   23.957031
    6.5276	  0.000000	  0.024000	  1.008000	   -0.470000	   -0.100000	    0.190000	   23.960938
    6.5376	  0.000500	  0.024500	  1.005000	   -0.280000	   -0.020000	    0.240000	   23.984375
    6.5476	  0.000500	  0.025000	  1.009000	   -0.440000	   -0.020000	    0.280000	   23.941406
    6.5576	  0.000000	  0.025500	  1.008000	   -0.330000	   -0.150000	    0.180000	   23.957031
    6.5676	  0.001000	  0.025500	  1.004000	   -0.300000	   -0.130000	    0.240000	   23.964844
    6.5776	  0.000000	  0.025500	  1.009500	   -0.410000	   -0.080000	    0.220000	   23.980469
    6.5876	  0.000500	  0.026000	  1.007500	   -0.390000	   -0.140000	    0.190000	   23.980469
    6.5976	  0.000000	  0.025000	  1.006500	   -0.310000	   -0.090000	    0.160000	   23.984375
    6.6076	  0.000500	  0.025000	  1.009000	   -0.330000	   -0.180000	    0.400000	   23.964844
    6.6176	  0.000500	  0.024500	  1.008500	   -0.480000	   -0.230000	    0.240000	   23.949219
    6.6276	  0.001000	  0.025500	  1.005500	   -0.520000	   -0.260000	    0.330000	   23.957031
    6.6376	  0.000500	  0.025000	  1.009500	   -0.430000	   -0.060000	    0.150000	   23.949219
    6.6476	  0.000500	  0.025500	  1.010000	   -0.440000	   -0.090000	    0.190000	   23.980469
    6.6576	  0.001000	  0.025500	  1.007000	   -0.330000	   -0.160000	    0.270000	   24.007813
    6.6676	  0.000000	  0.025000	  1.009500	   -0.330000	   -0.120000	    0.280000	   23.992188
    6.6776	  0.000000	  0.025000	  1.008500	   -0.440000	   -0.080000	    0.180000	   23.980469
    6.6876	  0.000000	  0.024500	  1.007500	   -0.410000	   -0.090000	    0.240000	   23.972656
    6.6976	 -0.001500	  0.025000	  1.009500	   -0.350000	   -0.080000	    0.200000	   23.968750
    6.7076	  0.000000	  0.025500	  1.008500	   -0.430000	   -0.180000	    0.220000	   23.964844
    6.7176	  0.000500	  0.024500	  1.009000	   -0.480000	   -0.130000	    0.260000	   23.984375
    6.7276	 -0.001500	  0.026500	  1.008500	   -0.360000	   -0.090000	    0.330000	   23.992188
    6.7376	 -0.001000	  0.025500	  1.008000	   -0.220000	   -0.240000	    0.250000	   23.984375
    6.7476	  0.000000	  0.024000	  1.008000	   -0.390000	   -0.150000	    0.280000	   23.988281
    6.7576	 -0.001500	  0.024500	  1.008500	   -0.410000	   -0.210000	    0.380000	   23.976563
    6.7676	 -0.001000	  0.023500	  1.007500	   -0.320000	   -0.050000	    0.300000	   23.988281
    6.7776	  0.000000	  0.026000	  1.008000	   -0.370000	   -0.030000	    0.260000	   24.000000
    6.7876	 -0.001000	  0.026000	  1.009500	   -0.360000	   -0.240000	    0.380000	   24.000000
    6.7976	  0.000000	  0.026000	  1.008500	   -0.440000	   -0.120000	    0.160000	   23.980469
    6.8077	  0.000000	  0.025500	  1.007500	   -0.390000	   -0.280000	    0.350000	   23.964844
    6.8176	 -0.000500	  0.025500	  1.010000	   -0.470000	   -0.120000	    0.230000	   23.980469
    6.8276	 -0.000500	  0.026500	  1.006500	   -0.470000	   -0.090000	    0.200000	   23.988281
    6.8376	  0.000000	  0.025500	  1.007000	   -0.280000	   -0.270000	    0.290000	   24.000000
    6.8476	 -0.002000	  0.027000	  1.009500	   -0.500000	   -0.060000	    0.250000	   23.988281
    6.8576	  0.000000	  0.025500	  1.009500	   -0.450000	   -0.100000	    0.270000	   23.960938
    6.8676	 -0.000500	  0.025500	  1.005500	   -0.420000	   -0.160000	    0.250000	   23.980469
    6.8776	 -0.001000	  0.025500	  1.009500	   -0.360000	   -0.210000	    0.290000	   24.007813
    6.8876	 -0.001000	  0.026000	  1.006500	   -0.420000	   -0.080000	    0.220000	   23.992188
    6.8976	  0.000000	  0.026000	  1.006000	   -0.410000	   -0.230000	    0.230000	   23.984375
    6.9076	 -0.002500	  0.025500	  1.009000	   -0.450000	   -0.120000	    0.290000	   23.976563
    6.9176	 -0.000500	  0.026500	  1.007500	   -0.420000	   -0.180000	    0.230000	   23.980469
    6.9276	  0.000500	  0.026000	  1.007500	   -0.400000	   -0.190000	    0.290000	   23.992188
    6.9376	 -0.000500	  0.025000	  1.006000	   -0.340000	   -0.200000	    0.320000	   23.996094
    6.9476	 -0.001500	  0.024500	  1.008000	   -0.440000	   -0.220000	    0.370000	   23.996094
    6.9580	  0.000000	  0.026000	  1.007000	   -0.310000	   -0.130000	    0.190000	   23.984375
    6.9676	 -0.001000	  0.025000	  1.009000	   -0.350000	   -0.120000	    0.230000	   23.957031
    6.9776	 -0.000500	  0.025000	  1.006500	   -0.440000	   -0.180000	    0.330000	   23.957031
    6.9876	 -0.000500	  0.024500	  1.008500	   -0.350000	   -0.150000	    0.230000	   23.976563
    6.9976	 -0.000500	  0.023500	  1.006500	   -0.290000	   -0.160000	    0.220000	   23.988281
    7.0077	 -0.001000	  0.024500	  1.010500	   -0.320000	   -0.220000	    0.200000	   23.988281
    7.0176	 -0.001000	  0.025500	  1.007000	   -0.430000	   -0.160000	    0.320000	   23.996094
    7.0276	  0.001000	  0.025500	  1.009500	   -0.390000	   -0.160000	    0.280000	   23.972656
    7.0376	 -0.001000	  0.025500	  1.008500	   -0.370000	   -0.120000	    0.220000	   23.957031
    7.0476	 -0.000500	  0.026000	  1.007000	   -0.310000	   -0.140000	    0.130000	   24.011719
    7.0576	 -0.000500	  0.025500	  1.010000	   -0.370000	   -0.220000	    0.180000	   24.003906
    7.0676	 -0.000500	  0.025000	  1.008000	   -0.360000	   -0.130000	    0.250000	   23.996094
    7.0776	 -0.000500	  0.024500	  1.007000	   -0.340000	   -0.130000	    0.080000	   23.976563
    7.0876	  0.000500	  0.025500	  1.008500	   -0.250000	   -0.050000	    0.190000	   23.988281
    7.0976	  0.001000	  0.025500	  1.009500	   -0.360000	   -0.030000	    0.330000	   23.968750
    7.1077	  0.000500	  0.026000	  1.007500	   -0.390000	   -0.090000	    0.300000	   23.988281
    7.1176	  0.000500	  0.026000	  1.010500	   -0.530000	   -0.260000	    0.280000	   23.992188
    7.1276	  0.000500	  0.024500	  1.008000	   -0.310000	   -0.140000	    0.290000	   23.960938
    7.1376	  0.000500	  0.026000	  1.008000	   -0.320000	   -0.120000	    0.280000	   23.960938
    7.1476	  0.000500	  0.025000	  1.008000	   -0.370000	   -0.050000	    0.150000	   23.976563
    7.1576	 -0.000500	  0.025500	  1.009000	   -0.390000	   -0.190000	    0.130000	   23.980469
    7.1676	  0.001000	  0.026500	  1.009500	   -0.340000	   -0.170000	    0.190000	   24.003906
    7.1776	  0.000500	  0.024500	  1.008500	   -0.400000	   -0.020000	    0.290000	   23.992188
    7.1876	  0.001000	  0.025500	  1.009000	   -0.430000	   -0.200000	    0.330000	   23.992188
    7.1976	  0.000500	  0.024500	  1.007500	   -0.520000	   -0.040000	    0.290000	   24.007813
    7.2077	  0.000500	  0.026000	  1.008500	   -0.430000	   -0.150000	    0.310000	   24.003906
    7.2176	  0.000000	  0.024500	  1.007500	   -0.250000	   -0.030000	    0.220000	   23.964844
    7.2276	  0.000000	  0.026000	  1.008500	   -0.340000	   -0.200000	    0.200000	   23.976563
    7.2376	  0.000500	  0.025000	  1.007500	   -0.430000	   -0.120000	    0.190000	   23.984375
    7.2476	 -0.000500	  0.025000	  1.006500	   -0.330000	   -0.100000	    0.280000	   23.964844
    7.2576	 -0.000500	  0.025000	  1.009000	   -0.420000	   -0.200000	    0.230000	   23.976563
    7.2676	  0.001000	  0.025000	  1.007000	   -0.440000	   -0.270000	    0.230000	   23.968750
    7.2776	 -0.000500	  0.026000	  1.008000	   -0.400000	   -0.100000	    0.330000	   23.964844
    7.2876	  0.000500	  0.024500	  1.007500	   -0.370000	   -0.130000	    0.260000	   23.972656
    7.2976	  0.001000	  0.024500	  1.007500	   -0.410000	   -0.150000	    0.370000	   23.984375
    7.3077	 -0.000500	  0.025000	  1.008000	   -0.390000	   -0.070000	    0.290000	   23.984375
    7.3176	  0.000500	  0.024500	  1.007500	   -0.440000	   -0.200000	    0.230000	   24.003906
    7.3276	 -0.001000	  0.025500	  1.007000	   -0.420000	   -0.170000	    0.190000	   23.996094
    7.3376	  0.000000	  0.025000	  1.007500	   -0.320000	   -0.090000	    0.210000	   24.000000
    7.3476	 -0.000500	  0.024500	  1.008000	   -0.380000	   -0.120000	    0.290000	   23.980469
    7.3576	 -0.000500	  0.025500	  1.008000	   -0.360000	   -0.190000	    0.250000	   23.980469
    7.3677	 -0.000500	  0.026500	  1.007500	   -0.410000	   -0.180000	    0.320000	   24.000000
    7.3776	 -0.000500	  0.025500	  1.007000	   -0.360000	   -0.240000	    0.270000	   24.003906
    7.3876	  0.000500	  0.026500	  1.007500	   -0.380000	   -0.160000	    0.260000	   23.968750
    7.3976	 -0.001500	  0.025000	  1.006500	   -0.290000	   -0.110000	    0.180000	   23.960938
    7.4077	 -0.001000	  0.026000	  1.010000	   -0.400000	   -0.090000	    0.250000	   23.968750
    7.4176	  0.000500	  0.025000	  1.008500	   -0.430000	   -0.200000	    0.260000	   23.980469
    7.4276	 -0.000500	  0.026000	  1.008000	   -0.330000	   -0.150000	    0.300000	   24.000000
    7.4376	 -0.000500	  0.026500	  1.009500	   -0.390000	   -0.210000	    0.190000	   24.007813
    7.4476	 -0.001000	  0.025000	  1.008000	   -0.410000	   -0.120000	    0.140000	   23.984375
    7.4576	 -0.000500	  0.025500	  1.008000	   -0.380000	   -0.240000	    0.240000	   23.984375
    7.4677	 -0.002000	  0.026000	  1.008500	   -0.400000	   -0.070000	    0.190000	   23.976563
    7.4776	 -0.000500	  0.027000	  1.007000	   -0.440000	   -0.060000	    0.170000	   24.007813
    7.4876	 -0.001000	  0.025000	  1.008000	   -0.510000	   -0.030000	    0.300000	   24.000000
    7.4976	 -0.001000	  0.025500	  1.007000	   -0.460000	   -0.100000	    0.350000	   24.015625
    7.5077	  0.000000	  0.024500	  1.008000	   -0.290000	   -0.100000	    0.320000	   23.968750
    7.5177	 -0.000500	  0.026500	  1.007500	   -0.470000	   -0.180000	    0.250000	   23.964844
    7.5277	 -0.002000	  0.024500	  1.007500	   -0.360000	   -0.160000	    0.220000	   23.980469
    7.5377	 -0.001500	  0.025500	  1.007000	   -0.450000	   -0.180000	    0.250000	   23.976563
    7.5477	 -0.001000	  0.024500	  1.008500	   -0.400000	   -0.230000	    0.180000	   24.000000
    7.5577	  0.000000	  0.026500	  1.008500	   -0.350000	   -0.160000	    0.220000	   23.988281
    7.5677	 -0.000500	  0.025000	  1.008000	   -0.440000	   -0.260000	    0.360000	   23.968750
    7.5777	 -0.000500	  0.025000	  1.007000	   -0.320000	   -0.110000	    0.250000	   24.007813
    7.5877	 -0.001000	  0.025000	  1.009000	   -0.350000	   -0.190000	    0.320000	   23.996094
    7.5977	  0.000000	  0.026000	  1.008000	   -0.390000	   -0.100000	    0.170000	   23.988281
    7.6077	 -0.000500	  0.025000	  1.007000	   -0.410000	   -0.170000	    0.120000	   24.015625
    7.6177	  0.000500	  0.025000	  1.009500	   -0.410000	   -0.120000	    0.210000	   24.003906
    7.6277	 -0.000500	  0.025000	  1.007500	   -0.320000	   -0.110000	    0.250000	   23.980469
    7.6377	  0.000500	  0.026500	  1.009000	   -0.330000	   -0.130000	    0.200000	   23.972656
    7.6477	 -0.000500	  0.024000	  1.007500	   -0.380000	   -0.070000	    0.200000	   23.984375
    7.6577	  0.000000	  0.027500	  1.008500	   -0.380000	   -0.190000	    0.210000	   24.011719
    7.6677	  0.001000	  0.025000	  1.008000	   -0.350000	   -0.260000	    0.260000	   24.003906
    7.6777	  0.000500	  0.026500	  1.008000	   -0.370000	   -0.100000	    0.110000	   24.019531
    7.6877	  0.000000	  0.025500	  1.008500	   -0.410000	   -0.160000	    0.300000	   24.003906
    7.6977	 -0.000500	  0.026500	  1.008500	   -0.280000	   -0.230000	    0.130000	   23.972656
    7.7077	 -0.001000	  0.025500	  1.008500	   -0.460000	   -0.080000	    0.280000	   23.988281
    7.7177	 -0.001000	  0.026000	  1.008000	   -0.320000	   -0.200000	    0.230000	   23.980469
    7.7277	  0.000500	  0.024500	  1.010000	   -0.380000	   -0.060000	    0.180000	   23.988281
    7.7377	 -0.000500	  0.024000	  1.008500	   -0.440000	   -0.180000	    0.230000	   23.988281
    7.7477	 -0.001000	  0.025500	  1.008000	   -0.270000	   -0.130000	    0.170000	   23.964844
    7.7577	  0.001500	  0.024000	  1.008500	   -0.430000	   -0.210000	    0.250000	   23.980469
    7.7677	  0.000500	  0.025500	  1.007500	   -0.490000	   -0.040000	    0.290000	   23.996094
    7.7777	 -0.001000	  0.025500	  1.009000	   -0.480000	   -0.150000	    0.200000	   23.996094
    7.7877	  0.000500	  0.026000	  1.008500	   -0.300000	   -0.130000	    0.250000	   23.992188
    7.7977	  0.001000	  0.027000	  1.007500	   -0.360000	   -0.190000	    0.390000	   24.003906
    7.8077	  0.001000	  0.024500	  1.008500	   -0.400000	   -0.250000	    0.240000	   24.007813
    7.8177	  0.000500	  0.025500	  1.009000	   -0.340000	   -0.240000	    0.320000	   23.976563
    7.8277	  0.001500	  0.025000	  1.008500	   -0.360000	   -0.180000	    0.300000	   23.992188
    7.8377	  0.001000	  0.026000	  1.008500	   -0.430000	   -0.220000	    0.270000	   24.000000
    7.8477	  0.000000	  0.025000	  1.007500	   -0.230000	   -0.050000	    0.240000	   24.015625
    7.8577	  0.000000	  0.025000	  1.007500	   -0.400000	   -0.050000	    0.320000	   24.023438
    7.8677	 -0.000500	  0.025000	  1.010000	   -0.350000	   -0.010000	    0.230000	   24.003906
    7.8777	  0.000000	  0.025500	  1.007000	   -0.440000	   -0.180000	    0.250000	   24.000000
    7.8877	  0.001000	  0.023500	  1.009500	   -0.350000	   -0.160000	    0.310000	   24.003906
    7.8977	 -0.000500	  0.025000	  1.007000	   -0.380000	   -0.170000	    0.290000	   23.992188
    7.9077	  0.000000	  0.024500	  1.009500	   -0.360000	   -0.170000	    0.260000	   24.023438
    7.9177	  0.000500	  0.025000	  1.007500	   -0.340000	   -0.220000	    0.320000	   24.039063
    7.9277	 -0.000500	  0.026000	  1.008500	   -0.420000	   -0.050000	    0.240000	   24.007813
    7.9377	  0.000000	  0.024000	  1.007000	   -0.470000	   -0.040000	    0.290000	   24.023438
    7.9477	  0.000000	  0.025500	  1.008500	   -0.560000	   -0.150000	    0.240000	   24.023438
    7.9580	 -0.000500	  0.025000	  1.007000	   -0.430000	   -0.120000	    0.250000	   23.992188
    7.9677	  0.000500	  0.025000	  1.008500	   -0.440000	   -0.190000	    0.270000	   23.976563
    7.9777	  0.000000	  0.025000	  1.008000	   -0.370000	    0.000000	    0.180000	   23.992188
    7.9877	 -0.000500	  0.025000	  1.009000	   -0.250000	   -0.060000	    0.230000	   24.023438
    7.9977	  0.001000	  0.026500	  1.010500	   -0.310000	   -0.060000	    0.210000	   24.019531
    8.0077	 -0.000500	  0.025000	  1.006500	   -0.470000	   -0.120000	    0.200000	   24.019531
    8.0177	 -0.001500	  0.026000	  1.008500	   -0.480000	   -0.190000	    0.380000	   24.023438
    8.0277	 -0.002000	  0.024500	  1.008000	   -0.320000	   -0.080000	    0.280000	   24.011719
    8.0377	 -0.000500	  0.024500	  1.009500	   -0.480000	   -0.140000	    0.290000	   24.003906
    8.0477	 -0.002000	  0.025000	  1.007000	   -0.330000	   -0.050000	    0.210000	   23.988281
    8.0577	 -0.001000	  0.025500	  1.008000	   -0.480000	   -0.130000	    0.280000	   23.988281
    8.0677	 -0.001000	  0.024000	  1.008000	   -0.370000	   -0.260000	    0.290000	   23.972656
    8.0777	 -0.001000	  0.026000	  1.008000	   -0.360000	   -0.110000	    0.280000	   23.980469
    8.0877	  0.000000	  0.024000	  1.008500	   -0.370000	   -0.040000	    0.230000	   23.996094
    8.0977	 -0.002500	  0.026000	  1.008000	   -0.370000	   -0.020000	    0.210000	   23.996094
    8.1077	 -0.001000	  0.026000	  1.007500	   -0.400000	   -0.240000	    0.330000	   23.972656
    8.1177	 -0.000500	  0.025500	  1.007000	   -0.420000	   -0.020000	    0.270000	   23.980469
    8.1277	  0.000000	  0.026500	  1.008500	   -0.440000	   -0.080000	    0.210000	   23.964844
    8.1377	 -0.000500	  0.025500	  1.006000	   -0.370000	   -0.120000	    0.190000	   23.996094
    8.1477	 -0.000500	  0.026000	  1.008500	   -0.330000	   -0.270000	    0.090000	   24.007813
    8.1577	 -0.000500	  0.024000	  1.007000	   -0.390000	   -0.170000	    0.310000	   24.007813
    8.1677	  0.000000	  0.027000	  1.008500	   -0.510000	   -0.200000	    0.340000	   24.000000
    8.1777	 -0.001500	  0.025500	  1.007500	   -0.370000	   -0.160000	    0.150000	   23.992188
    8.1877	 -0.001000	  0.024500	  1.007000	   -0.470000	   -0.220000	    0.210000	   23.988281
    8.1977	 -0.001000	  0.025000	  1.008000	   -0.500000	   -0.200000	    0.220000	   23.988281
    8.2077	 -0.002000	  0.025500	  1.007000	   -0.370000	   -0.040000	    0.250000	   24.011719
    8.2177	 -0.001000	  0.026000	  1.009000	   -0.440000	   -0.110000	    0.210000	   23.980469
    8.2277	 -0.000500	  0.026500	  1.007500	   -0.310000	   -0.120000	    0.430000	   23.992188
    8.2377	 -0.000500	  0.025500	  1.009000	   -0.410000	   -0.110000	    0.320000	   24.000000
    8.2477	  0.000500	  0.026000	  1.007500	   -0.280000	   -0.210000	    0.250000	   23.984375
    8.2577	 -0.001000	  0.026000	  1.008000	   -0.440000	   -0.190000	    0.300000	   23.968750
    8.2677	 -0.001000	  0.026500	  1.009000	   -0.380000	   -0.080000	    0.260000	   23.996094
    8.2777	  0.000500	  0.026000	  1.008500	   -0.400000	   -0.150000	    0.170000	   24.003906
    8.2877	  0.000500	  0.025500	  1.008500	   -0.480000	   -0.160000	    0.270000	   23.976563
    8.2977	 -0.001500	  0.025000	  1.008500	   -0.330000	   -0.120000	    0.210000	   23.992188
    8.3077	 -0.001500	  0.024500	  1.008000	   -0.270000	   -0.210000	    0.250000	   24.007813
    8.3177	 -0.000500	  0.025000	  1.008500	   -0.270000	   -0.130000	    0.200000	   24.003906
    8.3277	  0.000000	  0.024000	  1.008000	   -0.450000	   -0.100000	    0.240000	   23.988281
    8.3377	 -0.001500	  0.023500	  1.007000	   -0.420000	   -0.180000	    0.200000	   24.019531
    8.3477	 -0.001500	  0.024500	  1.008500	   -0.430000	   -0.070000	    0.170000	   24.011719
    8.3577	 -0.001500	  0.025000	  1.007000	   -0.300000	   -0.190000	    0.250000	   23.972656
    8.3677	 -0.001500	  0.025000	  1.009000	   -0.490000	   -0.130000	    0.240000	   23.968750
    8.3777	 -0.000500	  0.024500	  1.007000	   -0.390000	   -0.250000	    0.230000	   24.003906
    8.3877	 -0.001000	  0.025500	  1.009500	   -0.280000	   -0.130000	    0.220000	   24.031250
    8.3977	  0.001000	  0.025500	  1.008500	   -0.440000	   -0.170000	    0.310000	   24.039063
    8.4077	  0.001000	  0.026500	  1.008000	   -0.350000	   -0.170000	    0.200000	   24.023438
    8.4177	  0.000500	  0.025500	  1.008500	   -0.360000	   -0.140000	    0.200000	   23.996094
    8.4277	  0.002500	  0.025500	  1.006500	   -0.400000	   -0.080000	    0.160000	   24.007813
    8.4377	  0.002500	  0.026500	  1.007500	   -0.310000	   -0.010000	    0.340000	   24.003906
    8.4477	  0.001500	  0.025500	  1.007500	   -0.350000	   -0.140000	    0.280000	   24.011719
    8.4577	  0.002000	  0.026000	  1.008000	   -0.470000	   -0.280000	    0.300000	   23.996094
    8.4677	  0.000000	  0.026000	  1.007500	   -0.390000	   -0.240000	    0.250000	   23.988281
    8.4777	  0.000500	  0.026000	  1.009500	   -0.460000	   -0.140000	    0.350000	   23.984375
    8.4877	 -0.001000	  0.024000	  1.008500	   -0.410000	   -0.140000	    0.180000	   24.023438
    8.4977	 -0.001000	  0.025500	  1.011000	   -0.410000	   -0.190000	    0.260000	   24.023438
    8.5077	 -0.002000	  0.024000	  1.010500	   -0.450000	   -0.180000	    0.220000	   24.035156
    8.5177	 -0.000500	  0.025000	  1.009500	   -0.370000	   -0.250000	    0.310000	   24.023438
    8.5277	 -0.001000	  0.023500	  1.007000	   -0.400000	   -0.120000	    0.280000	   24.011719
    8.5377	 -0.001000	  0.024500	  1.008500	   -0.350000	   -0.110000	    0.250000	   24.011719
    8.5477	  0.000000	  0.023000	  1.010500	   -0.430000	   -0.040000	    0.330000	   24.011719
    8.5577	  0.001500	  0.024500	  1.007000	   -0.430000	   -0.280000	    0.230000	   24.011719
    8.5677	  0.000500	  0.025000	  1.008500	   -0.420000	   -0.170000	    0.290000	   24.003906
    8.5777	  0.000000	  0.024000	  1.006500	   -0.450000	   -0.040000	    0.350000	   23.996094
    8.5877	  0.001500	  0.024000	  1.007500	   -0.340000	   -0.100000	    0.250000	   24.011719
    8.5977	 -0.000500	  0.023500	  1.009500	   -0.320000	   -0.230000	    0.260000	   24.011719
    8.6078	 -0.000500	  0.026500	  1.007000	   -0.560000	   -0.190000	    0.240000	   24.000000
    8.6177	  0.002000	  0.026000	  1.007500	   -0.450000	   -0.160000	    0.270000	   24.007813
    8.6277	  0.000500	  0.026000	  1.008000	   -0.390000	   -0.080000	    0.170000	   24.000000
    8.6377	  0.000000	  0.025500	  1.009500	   -0.320000	   -0.030000	    0.210000	   24.015625
    8.6477	  0.001500	  0.026500	  1.008000	   -0.280000	   -0.090000	    0.260000	   24.003906
    8.6577	  0.000000	  0.026000	  1.009000	   -0.420000	   -0.040000	    0.210000	   24.023438
    8.6677	 -0.000500	  0.025500	  1.008000	   -0.280000	   -0.190000	    0.240000	   24.011719
    8.6777	  0.000500	  0.026000	  1.009000	   -0.340000	   -0.040000	    0.260000	   23.988281
    8.6877	 -0.001000	  0.025000	  1.007500	   -0.410000	   -0.140000	    0.300000	   23.996094
    8.6977	  0.000000	  0.024500	  1.010000	   -0.360000	   -0.210000	    0.310000	   23.992188
    8.7078	 -0.000500	  0.024000	  1.007500	   -0.390000	   -0.160000	    0.270000	   23.996094
    8.7177	 -0.000500	  0.025000	  1.008500	   -0.260000	   -0.050000	    0.320000	   24.003906
    8.7277	  0.000000	  0.025500	  1.008500	   -0.480000	   -0.120000	    0.180000	   23.988281
    8.7377	 -0.000500	  0.026000	  1.006500	   -0.380000	   -0.260000	    0.360000	   24.000000
    8.7477	  0.001000	  0.026000	  1.009500	   -0.430000	   -0.170000	    0.240000	   24.011719
    8.7577	  0.001500	  0.025000	  1.008000	   -0.270000	   -0.130000	    0.340000	   24.003906
    8.7677	  0.000500	  0.027500	  1.010000	   -0.330000	   -0.160000	    0.250000	   24.023438
    8.7777	 -0.001500	  0.025000	  1.008500	   -0.290000	   -0.090000	    0.280000	   24.011719
    8.7877	  0.001000	  0.025500	  1.007500	   -0.350000	   -0.150000	    0.250000	   24.011719
    8.7977	  0.000000	  0.024500	  1.009000	   -0.370000	   -0.240000	    0.190000	   24.023438
    8.8078	 -0.000500	  0.025000	  1.009500	   -0.390000	   -0.110000	    0.280000	   23.984375
    8.8177	  0.000000	  0.025500	  1.007000	   -0.320000	    0.000000	    0.170000	   23.996094
    8.8277	 -0.001000	  0.024500	  1.009500	   -0.350000	   -0.160000	    0.240000	   24.019531
    8.8377	 -0.000500	  0.025500	  1.007000	   -0.380000	   -0.230000	    0.200000	   24.003906
    8.8477	 -0.000500	  0.025000	  1.006500	   -0.250000	   -0.130000	    0.200000	   24.015625
    8.8577	 -0.000500	  0.026000	  1.009500	   -0.370000	   -0.130000	    0.270000	   24.027344
    8.8677	  0.000500	  0.025500	  1.006000	   -0.240000	   -0.020000	    0.310000	   24.011719
    8.8777	  0.000000	  0.025500	  1.008000	   -0.420000	   -0.080000	    0.180000	   24.011719
    8.8877	  0.001000	  0.025500	  1.008500	   -0.310000	   -0.210000	    0.260000	   23.988281
    8.8977	  0.000500	  0.026500	  1.008500	   -0.330000	   -0.240000	    0.200000	   24.000000
    8.9077	 -0.000500	  0.026000	  1.006000	   -0.410000	   -0.150000	    0.240000	   24.011719
    8.9177	  0.001000	  0.025500	  1.010000	   -0.410000	   -0.110000	    0.250000	   24.000000
    8.9277	  0.001000	  0.024500	  1.008000	   -0.510000	   -0.090000	    0.160000	   24.019531
    8.9377	  0.000000	  0.026000	  1.006500	   -0.440000	   -0.100000	    0.300000	   24.003906
    8.9477	  0.000000	  0.026000	  1.007500	   -0.390000	   -0.210000	    0.320000	   24.007813
    8.9581	  0.000000	  0.025500	  1.009000	   -0.400000	   -0.120000	    0.280000	   24.007813
    8.9677	 -0.000500	  0.025000	  1.007500	   -0.340000	   -0.120000	    0.170000	   24.011719
    8.9777	 -0.000500	  0.026000	  1.008500	   -0.420000	   -0.210000	    0.250000	   24.000000
    8.9877	  0.000500	  0.026000	  1.011500	   -0.400000	   -0.170000	    0.250000	   23.988281
    8.9977	  0.001000	  0.026000	  1.007000	   -0.340000	   -0.060000	    0.210000	   24.027344
    9.0078	  0.000500	  0.025500	  1.007500	   -0.310000	   -0.230000	    0.140000	   24.027344
    9.0177	  0.000000	  0.025500	  1.007500	   -0.280000	   -0.150000	    0.110000	   24.023438
    9.0277	  0.002000	  0.024500	  1.007000	   -0.340000	   -0.160000	    0.180000	   24.023438
    9.0377	 -0.000500	  0.025000	  1.008500	   -0.350000	   -0.090000	    0.300000	   24.003906
    9.0477	 -0.000500	  0.025500	  1.008500	   -0.390000	   -0.260000	    0.260000	   24.011719
    9.0577	  0.000000	  0.026500	  1.008000	   -0.400000	   -0.030000	    0.200000	   23.996094
    9.0677	 -0.001000	  0.024500	  1.007000	   -0.390000	   -0.040000	    0.260000	   24.007813
    9.0777	  0.000000	  0.026000	  1.010000	   -0.370000	   -0.140000	    0.200000	   24.000000
    9.0877	 -0.000500	  0.025000	  1.008500	   -0.430000	   -0.050000	    0.420000	   24.007813
    9.0977	 -0.001000	  0.025500	  1.010000	   -0.350000	   -0.060000	    0.190000	   24.019531
    9.1078	  0.000500	  0.024500	  1.007500	   -0.330000	   -0.210000	    0.280000	   24.019531
    9.1177	 -0.000500	  0.025500	  1.010500	   -0.350000	   -0.240000	    0.240000	   24.035156
    9.1277	  0.001000	  0.025500	  1.007000	   -0.340000	   -0.180000	    0.270000	   24.023438
    9.1378	  0.000000	  0.026000	  1.008500	   -0.360000	   -0.140000	    0.290000	   24.023438
    9.1477	  0.000000	  0.025500	  1.010000	   -0.460000	   -0.090000	    0.320000	   24.015625
    9.1577	 -0.000500	  0.025500	  1.008500	   -0.410000	   -0.160000	    0.310000	   24.011719
    9.1678	  0.000000	  0.025000	  1.008500	   -0.470000	   -0.130000	    0.280000	   24.003906
    9.1777	 -0.001000	  0.025000	  1.008500	   -0.370000	   -0.080000	    0.230000	   24.023438
    9.1877	 -0.001000	  0.025500	  1.008500	   -0.380000	   -0.110000	    0.240000	   24.023438
    9.1977	 -0.001000	  0.025500	  1.007500	   -0.400000	   -0.160000	    0.200000	   24.015625
    9.2078	 -0.001000	  0.026500	  1.008000	   -0.510000	   -0.110000	    0.180000	   24.007813
    9.2178	  0.000000	  0.025000	  1.008500	   -0.350000	   -0.120000	    0.270000	   23.996094
    9.2277	 -0.001000	  0.025000	  1.007500	   -0.320000	   -0.150000	    0.230000	   23.996094
    9.2378	 -0.000500	  0.026500	  1.007000	   -0.420000	   -0.150000	    0.250000	   24.023438
    9.2478	 -0.000500	  0.025000	  1.009000	   -0.330000	    0.020000	    0.250000	   23.992188
    9.2578	  0.000000	  0.025500	  1.007500	   -0.500000	   -0.180000	    0.140000	   24.015625
    9.2678	 -0.000500	  0.024500	  1.007500	   -0.550000	   -0.070000	    0.170000	   24.003906
    9.2778	  0.000000	  0.025500	  1.008500	   -0.410000	   -0.140000	    0.300000	   24.019531
    9.2878	  0.001000	  0.025000	  1.007500	   -0.430000	   -0.190000	    0.270000	   24.019531
    9.2978	 -0.001500	  0.026000	  1.007500	   -0.430000	   -0.020000	    0.140000	   24.023438
    9.3078	 -0.001000	  0.025000	  1.008000	   -0.300000	   -0.160000	    0.220000	   24.015625
    9.3178	 -0.000500	  0.025000	  1.009500	   -0.380000	   -0.210000	    0.290000	   24.035156
    9.3278	 -0.000500	  0.024000	  1.007500	   -0.350000	    0.000000	    0.190000	   24.019531
    9.3378	 -0.000500	  0.025500	  1.008000	   -0.390000	   -0.100000	    0.270000	   24.011719
    9.3478	 -0.001500	  0.024500	  1.008000	   -0.280000	   -0.170000	    0.190000	   24.023438
    9.3578	 -0.000500	  0.025500	  1.007000	   -0.390000	   -0.180000	    0.290000	   24.023438
    9.3678	  0.000500	  0.025500	  1.007000	   -0.260000	   -0.200000	    0.320000	   24.035156
    9.3778	 -0.000500	  0.026500	  1.008000	   -0.350000	   -0.110000	    0.270000	   24.039063
    9.3878	  0.000500	  0.025500	  1.007000	   -0.380000	   -0.150000	    0.300000	   24.031250
    9.3978	 -0.001000	  0.025500	  1.006000	   -0.400000	   -0.030000	    0.180000	   24.007813
    9.4078	 -0.000500	  0.026500	  1.009000	   -0.370000	   -0.060000	    0.340000	   23.996094
    9.4178	  0.000000	  0.026000	  1.006000	   -0.370000	   -0.190000	    0.140000	   24.007813
    9.4278	  0.000000	  0.026000	  1.008000	   -0.360000	   -0.130000	    0.230000	   24.011719
    9.4378	  0.000000	  0.025500	  1.007000	   -0.420000	   -0.210000	    0.110000	   24.031250
    9.4478	  0.001500	  0.026500	  1.009000	   -0.400000	   -0.180000	    0.220000	   24.015625
    9.4578	  0.000000	  0.023500	  1.006000	   -0.420000	   -0.080000	    0.210000	   23.988281
    9.4678	 -0.001000	  0.025000	  1.008000	   -0.350000	   -0.190000	    0.300000	   24.015625
    9.4778	  0.000500	  0.023500	  1.007000	   -0.380000	    0.020000	    0.320000	   24.027344
    9.4878	 -0.001000	  0.025500	  1.009000	   -0.450000	   -0.090000	    0.220000	   24.007813
    9.4978	  0.000000	  0.025500	  1.006500	   -0.280000	   -0.160000	    0.240000	   24.019531
    9.5078	  0.000000	  0.024000	  1.007000	   -0.400000	   -0.120000	    0.280000	   24.023438
    9.5178	  0.000000	  0.024500	  1.007500	   -0.310000	   -0.180000	    0.200000	   24.015625
    9.5278	 -0.001000	  0.026000	  1.009000	   -0.430000	   -0.180000	    0.310000	   24.015625
    9.5378	 -0.000500	  0.026000	  1.008000	   -0.380000	    0.000000	    0.210000	   24.027344
    9.5478	  0.000000	  0.024500	  1.008500	   -0.500000	   -0.090000	    0.240000	   24.039063
    9.5578	  0.000000	  0.026500	  1.008500	   -0.530000	   -0.200000	    0.250000	   24.000000
    9.5678	  0.001500	  0.025500	  1.008500	   -0.460000	   -0.120000	    0.320000	   24.031250
    9.5778	  0.001000	  0.027000	  1.007500	   -0.330000	   -0.100000	    0.080000	   24.039063
    9.5878	 -0.000500	  0.025500	  1.008000	   -0.310000	   -0.190000	    0.270000	   24.007813
    9.5978	  0.000500	  0.026500	  1.008500	   -0.340000	   -0.150000	    0.230000	   24.035156
    9.6078	  0.001000	  0.026000	  1.008500	   -0.440000	   -0.150000	    0.260000	   24.035156
    9.6178	 -0.001000	  0.024500	  1.009000	   -0.390000	   -0.330000	    0.330000	   24.035156
    9.6278	  0.000500	  0.025500	  1.007500	   -0.410000	   -0.120000	    0.270000	   24.011719
    9.6378	  0.000000	  0.027000	  1.007500	   -0.420000	   -0.160000	    0.290000	   24.011719
    9.6478	  0.000000	  0.027000	  1.009500	   -0.500000	   -0.120000	    0.240000	   24.015625
    9.6578	  0.001000	  0.026000	  1.007000	   -0.320000	   -0.090000	    0.230000	   24.015625
    9.6678	  0.001000	  0.024000	  1.009500	   -0.390000	   -0.120000	    0.330000	   24.019531
    9.6778	  0.000500	  0.025500	  1.008000	   -0.320000	   -0.010000	    0.230000	   24.003906
    9.6878	  0.000500	  0.026000	  1.008000	   -0.370000	   -0.100000	    0.230000	   24.031250
    9.6978	 -0.000500	  0.025500	  1.008000	   -0.500000	   -0.190000	    0.300000	   24.027344
    9.7078	  0.000000	  0.024000	  1.009500	   -0.480000	   -0.080000	    0.330000	   24.015625
    9.7178	  0.000000	  0.025500	  1.006500	   -0.300000	   -0.160000	    0.230000	   24.015625
    9.7278	 -0.001000	  0.024500	  1.007500	   -0.370000	   -0.270000	    0.210000	   24.011719
    9.7378	 -0.001000	  0.025500	  1.008000	   -0.270000	   -0.090000	    0.280000	   24.015625
    9.7478	 -0.000500	  0.025000	  1.007500	   -0.350000	   -0.300000	    0.330000	   23.996094
    9.7578	  0.000000	  0.024500	  1.005500	   -0.310000	   -0.240000	    0.230000	   23.988281
    9.7678	 -0.000500	  0.025000	  1.008500	   -0.400000	   -0.040000	    0.230000	   24.007813
    9.7778	  0.000500	  0.025500	  1.007500	   -0.380000	   -0.170000	    0.270000	   24.019531
    9.7878	  0.000000	  0.025500	  1.006500	   -0.480000	    0.020000	    0.260000	   24.023438
    9.7978	 -0.001000	  0.024500	  1.007500	   -0.380000	   -0.130000	    0.230000	   24.015625
    9.8078	 -0.000500	  0.026000	  1.007000	   -0.470000	   -0.070000	    0.100000	   24.011719
    9.8178	  0.000000	  0.025000	  1.008000	   -0.370000	   -0.090000	    0.300000	   24.000000
    9.8278	 -0.000500	  0.026000	  1.008000	   -0.390000	   -0.150000	    0.340000	   24.019531
    9.8378	 -0.000500	  0.026000	  1.009500	   -0.350000	   -0.100000	    0.260000	   24.039063
    9.8478	  0.000000	  0.025000	  1.008000	   -0.350000	   -0.150000	    0.160000	   24.031250
    9.8578	 -0.000500	  0.025500	  1.007000	   -0.300000	   -0.140000	    0.250000	   24.042969
    9.8678	  0.000000	  0.025000	  1.009500	   -0.340000	   -0.180000	    0.260000	   24.031250
    9.8778	  0.000000	  0.026500	  1.008000	   -0.490000	   -0.170000	    0.300000	   24.039063
    9.8878	  0.000500	  0.023000	  1.007000	   -0.390000	   -0.160000	    0.360000	   24.003906
    9.8978	 -0.000500	  0.025000	  1.008000	   -0.300000	   -0.240000	    0.240000	   24.019531
    9.9078	 -0.000500	  0.025500	  1.008500	   -0.410000	   -0.170000	    0.230000	   24.023438
    9.9178	  0.000000	  0.026500	  1.009500	   -0.520000	   -0.100000	    0.240000	   24.050781
    9.9278	 -0.000500	  0.024000	  1.008000	   -0.440000	   -0.060000	    0.190000	   24.035156
    9.9378	 -0.001000	  0.025500	  1.008500	   -0.260000	   -0.190000	    0.240000	   24.019531
    9.9478	  0.000500	  0.025000	  1.005500	   -0.420000	   -0.180000	    0.260000	   24.042969
    9.9578	  0.000000	  0.025500	  1.008500	   -0.390000	   -0.200000	    0.290000	   24.023438
    9.9682	  0.000000	  0.026000	  1.009500	   -0.290000	    0.070000	    0.120000	   24.023438
    9.9778	  0.000500	  0.026500	  1.007000	   -0.410000	   -0.120000	    0.450000	   24.027344
    9.9878	  0.000500	  0.025500	  1.008500	   -0.450000	   -0.210000	    0.310000	   24.058594
    9.9978	 -0.001500	  0.024000	  1.008500	   -0.400000	   -0.230000	    0.360000	   24.046875
   10.0078	  0.000000	  0.026500	  1.008000	   -0.340000	   -0.150000	    0.180000	   24.042969
   10.0178	  0.000000	  0.025000	  1.007500	   -0.370000	   -0.100000	    0.340000	   24.011719
   10.0278	 -0.000500	  0.026500	  1.008500	   -0.290000	   -0.110000	    0.230000	   23.996094
   10.0378	  0.000000	  0.026500	  1.007000	   -0.420000	   -0.090000	    0.220000	   24.000000
   10.0478	  0.000000	  0.024500	  1.005000	   -0.340000	   -0.230000	    0.290000	   24.062500
   10.0578	 -0.000500	  0.025000	  1.009500	   -0.220000	   -0.110000	    0.120000	   24.046875
   10.0678	 -0.000500	  0.025500	  1.007000	   -0.480000	   -0.080000	    0.170000	   24.046875
   10.0778	  0.000500	  0.024500	  1.008500	   -0.390000	   -0.160000	    0.340000	   24.035156
   10.0878	  0.001500	  0.025000	  1.007500	   -0.440000	   -0.060000	    0.270000	   24.031250
   10.0978	  0.000000	  0.025000	  1.008500	   -0.440000	   -0.160000	    0.270000	   24.023438
   10.1078	 -0.001000	  0.024500	  1.007500	   -0.390000	   -0.260000	    0.220000	   24.027344
   10.1178	  0.000500	  0.025500	  1.008000	   -0.330000	   -0.150000	    0.190000	   24.031250
   10.1278	  0.000000	  0.026500	  1.007500	   -0.440000	   -0.170000	    0.250000	   24.050781
   10.1378	 -0.001000	  0.025500	  1.007500	   -0.420000	   -0.110000	    0.280000	   24.019531
   10.1478	 -0.001000	  0.024500	  1.008500	   -0.380000	   -0.150000	    0.270000	   24.003906
   10.1578	 -0.000500	  0.025500	  1.009500	   -0.370000	   -0.170000	    0.300000	   24.023438
   10.1678	 -0.000500	  0.025500	  1.008500	   -0.330000	   -0.090000	    0.200000	   24.027344
   10.1778	 -0.000500	  0.025000	  1.007000	   -0.440000	   -0.240000	    0.180000	   24.046875
   10.1878	 -0.001000	  0.025000	  1.009000	   -0.460000	   -0.100000	    0.330000	   24.046875
   10.1978	 -0.000500	  0.023500	  1.007000	   -0.420000	   -0.210000	    0.330000	   24.054688
   10.2078	 -0.000500	  0.025500	  1.010000	   -0.390000	   -0.140000	    0.240000	   24.058594
   10.2178	  0.001000	  0.024500	  1.006000	   -0.460000	   -0.150000	    0.200000	   24.031250
   10.2278	  0.000000	  0.025500	  1.009000	   -0.340000	   -0.090000	    0.190000	   24.023438
   10.2378	  0.000500	  0.024500	  1.008000	   -0.410000	   -0.070000	    0.260000	   24.035156
   10.2478	  0.000000	  0.025500	  1.008000	   -0.400000	   -0.190000	    0.330000	   24.046875
   10.2578	 -0.000500	  0.026000	  1.009000	   -0.370000	   -0.290000	    0.390000	   24.039063
   10.2678	  0.000500	  0.025000	  1.009000	   -0.410000	   -0.040000	    0.150000	   24.039063
   10.2778	  0.000000	  0.025500	  1.006500	   -0.390000	   -0.150000	    0.260000	   24.011719
   10.2878	  0.000000	  0.025000	  1.009000	   -0.470000	   -0.140000	    0.280000	   24.011719
   10.2978	  0.000000	  0.026000	  1.008500	   -0.370000	   -0.170000	    0.240000	   24.039063
   10.3079	  0.000000	  0.025500	  1.006000	   -0.470000	   -0.150000	    0.250000	   24.039063
   10.3178	  0.000000	  0.024500	  1.009500	   -0.370000	   -0.190000	    0.290000	   24.042969
   10.3278	 -0.000500	  0.026000	  1.007500	   -0.300000	   -0.160000	    0.300000	   24.027344
   10.3378	 -0.001000	  0.025000	  1.008500	   -0.440000	   -0.170000	    0.280000	   24.015625
   10.3478	  0.000000	  0.025500	  1.007500	   -0.250000	   -0.190000	    0.330000	   24.054688
   10.3578	 -0.001000	  0.026000	  1.008000	   -0.430000	   -0.120000	    0.280000	   24.031250
   10.3678	  0.000000	  0.025500	  1.008000	   -0.320000	   -0.180000	    0.270000	   24.035156
   10.3778	  0.000500	  0.024500	  1.008000	   -0.390000	   -0.080000	    0.220000	   24.023438
   10.3878	  0.000000	  0.025000	  1.007000	   -0.350000	   -0.140000	    0.280000	   24.039063
   10.3978	  0.000000	  0.024000	  1.007500	   -0.270000	   -0.110000	    0.240000	   24.042969
   10.4079	 -0.000500	  0.025500	  1.007500	   -0.430000	   -0.210000	    0.210000	   24.039063
   10.4178	  0.000000	  0.024500	  1.009000	   -0.360000	   -0.010000	    0.290000	   24.007813
   10.4278	  0.000000	  0.025000	  1.010000	   -0.410000	   -0.290000	    0.260000	   24.027344
   10.4378	  0.000500	  0.025000	  1.007000	   -0.460000	   -0.210000	    0.190000	   24.023438
   10.4478	 -0.000500	  0.025000	  1.009000	   -0.360000	   -0.190000	    0.180000	   24.015625
   10.4578	  0.000000	  0.025500	  1.008000	   -0.380000	   -0.140000	    0.280000	   24.015625
   10.4678	  0.000500	  0.024500	  1.007000	   -0.310000	   -0.180000	    0.150000	   24.046875
   10.4778	 -0.001000	  0.025500	  1.007500	   -0.330000	   -0.190000	    0.320000	   24.023438
   10.4878	 -0.000500	  0.023500	  1.009500	   -0.420000	   -0.100000	    0.200000	   24.031250
   10.4978	 -0.001000	  0.025500	  1.008000	   -0.450000	   -0.280000	    0.280000	   24.039063
   10.5079	 -0.002000	  0.025500	  1.008000	   -0.390000	   -0.110000	    0.270000	   24.039063
   10.5178	 -0.002000	  0.025000	  1.007500	   -0.310000	   -0.200000	    0.230000	   24.046875
   10.5278	 -0.001000	  0.024000	  1.008500	   -0.400000	   -0.240000	    0.220000	   24.054688
   10.5378	  0.000000	  0.025000	  1.008000	   -0.430000	   -0.140000	    0.120000	   24.039063
   10.5478	  0.000000	  0.024500	  1.008000	   -0.330000	   -0.170000	    0.380000	   24.023438
   10.5578	  0.001000	  0.026000	  1.010000	   -0.380000	   -0.040000	    0.260000	   24.027344
   10.5678	  0.001000	  0.025000	  1.008000	   -0.290000	   -0.160000	    0.210000	   24.046875
   10.5778	  0.000000	  0.025000	  1.007500	   -0.370000	   -0.140000	    0.220000	   24.042969
   10.5878	  0.001000	  0.024500	  1.008500	   -0.440000	   -0.190000	    0.190000	   24.039063
   10.5978	  0.002000	  0.025000	  1.007500	   -0.520000	   -0.140000	    0.270000	   24.054688
   10.6079	 -0.000500	  0.025000	  1.007000	   -0.360000	   -0.150000	    0.310000	   24.050781
   10.6178	 -0.001500	  0.026000	  1.008500	   -0.370000	   -0.240000	    0.320000	   24.054688
   10.6278	  0.000000	  0.025000	  1.007500	   -0.460000	   -0.310000	    0.220000	   24.050781
   10.6378	 -0.000500	  0.025000	  1.008500	   -0.440000	   -0.190000	    0.280000	   24.058594
   10.6478	 -0.001500	  0.025000	  1.008500	   -0.450000	   -0.090000	    0.250000	   24.070313
   10.6578	 -0.001500	  0.025000	  1.008000	   -0.420000	   -0.110000	    0.190000	   24.066406
   10.6678	 -0.001500	  0.024500	  1.008000	   -0.420000	   -0.110000	    0.180000	   24.035156
   10.6778	 -0.001000	  0.025000	  1.007000	   -0.380000	   -0.110000	    0.280000	   24.039063
   10.6878	  0.000500	  0.023500	  1.008500	   -0.430000	   -0.140000	    0.250000	   24.023438
   10.6978	  0.000500	  0.025500	  1.006500	   -0.300000	   -0.280000	    0.220000	   24.023438
   10.7079	  0.000000	  0.025000	  1.008500	   -0.310000	   -0.210000	    0.290000	   24.027344
   10.7178	  0.000000	  0.025000	  1.008500	   -0.440000	   -0.040000	    0.180000	   24.023438
   10.7278	  0.000000	  0.026000	  1.009500	   -0.330000	   -0.150000	    0.220000	   24.039063
   10.7378	  0.000500	  0.025000	  1.008000	   -0.420000	   -0.180000	    0.230000	   24.058594
   10.7478	  0.001000	  0.024500	  1.007500	   -0.390000	   -0.050000	    0.200000	   24.042969
   10.7578	  0.001500	  0.024500	  1.008000	   -0.320000	   -0.250000	    0.240000	   24.046875
   10.7678	  0.001500	  0.026000	  1.008500	   -0.370000	   -0.150000	    0.320000	   24.046875
   10.7778	  0.000500	  0.025500	  1.006000	   -0.340000	   -0.100000	    0.190000	   24.035156
   10.7878	  0.000000	  0.025500	  1.008000	   -0.320000	   -0.120000	    0.160000	   24.023438
   10.7978	  0.000500	  0.026000	  1.008500	   -0.390000	   -0.110000	    0.330000	   24.019531
   10.8079	  0.000500	  0.025500	  1.007500	   -0.350000	   -0.030000	    0.180000	   24.023438
   10.8178	 -0.002000	  0.026000	  1.009500	   -0.430000	   -0.080000	    0.330000	   24.027344
   10.8278	 -0.002000	  0.025500	  1.008500	   -0.280000	   -0.260000	    0.300000	   24.050781
   10.8378	 -0.001000	  0.025000	  1.008000	   -0.440000	   -0.160000	    0.370000	   24.031250
   10.8478	 -0.001000	  0.025000	  1.008500	   -0.450000	   -0.190000	    0.220000	   24.039063
   10.8578	  0.000000	  0.025000	  1.010000	   -0.460000	   -0.190000	    0.380000	   24.039063
   10.8678	  0.000000	  0.025000	  1.006000	   -0.360000	   -0.150000	    0.270000	   24.042969
   10.8778	 -0.000500	  0.025000	  1.009500	   -0.460000	   -0.110000	    0.270000	   24.027344
   10.8878	  0.001000	  0.025500	  1.008000	   -0.390000	   -0.230000	    0.270000	   24.039063
   10.8978	  0.001000	  0.025500	  1.008000	   -0.420000	   -0.160000	    0.160000	   24.035156
   10.9078	  0.000500	  0.025500	  1.009000	   -0.370000	   -0.090000	    0.220000	   24.062500
   10.9178	  0.002000	  0.024500	  1.010500	   -0.380000	   -0.150000	    0.230000	   24.093750
   10.9278	  0.000000	  0.025500	  1.006500	   -0.320000	   -0.050000	    0.260000	   24.058594
   10.9378	  0.000000	  0.025000	  1.009000	   -0.370000	   -0.240000	    0.180000	   24.050781
   10.9478	  0.000500	  0.025000	  1.009500	   -0.340000	   -0.190000	    0.350000	   24.074219
   10.9582	  0.001000	  0.025000	  1.006000	   -0.420000	   -0.150000	    0.230000	   24.058594
   10.9679	  0.000500	  0.026000	  1.005000	   -0.370000	   -0.170000	    0.290000	   24.046875
   10.9779	  0.000000	  0.026000	  1.010500	   -0.350000	   -0.090000	    0.230000	   24.062500
   10.9878	 -0.000500	  0.025500	  1.007000	   -0.440000	   -0.160000	    0.300000	   24.023438
   10.9978	 -0.000500	  0.025000	  1.007000	   -0.380000	   -0.090000	    0.270000	   24.023438
   11.0079	 -0.002000	  0.025000	  1.008500	   -0.290000	   -0.080000	    0.120000	   24.019531
   11.0178	 -0.002000	  0.024000	  1.007000	   -0.270000	   -0.060000	    0.220000	   24.031250
   11.0278	 -0.002500	  0.025500	  1.008500	   -0.450000	   -0.130000	    0.230000	   24.035156
   11.0378	 -0.001000	  0.025000	  1.009000	   -0.400000	   -0.210000	    0.300000	   24.039063
   11.0478	 -0.001000	  0.025000	  1.008500	   -0.360000	   -0.080000	    0.320000	   24.031250
   11.0579	 -0.002000	  0.025000	  1.007500	   -0.420000	   -0.140000	    0.320000	   24.042969
   11.0679	  0.001000	  0.025500	  1.007500	   -0.360000	   -0.160000	    0.330000	   24.054688
   11.0779	  0.001500	  0.025000	  1.008000	   -0.370000	   -0.130000	    0.250000	   24.042969
   11.0878	  0.002000	  0.025500	  1.009000	   -0.350000	   -0.200000	    0.200000	   24.042969
   11.0979	  0.000000	  0.025000	  1.008000	   -0.410000	   -0.140000	    0.200000	   24.050781
   11.1079	 -0.000500	  0.025500	  1.008500	   -0.270000	   -0.050000	    0.310000	   24.062500
   11.1179	  0.001000	  0.024500	  1.010500	   -0.410000	   -0.070000	    0.280000	   24.035156
   11.1279	  0.000500	  0.026000	  1.007000	   -0.390000	   -0.360000	    0.190000	   24.011719
   11.1379	  0.000500	  0.025500	  1.008000	   -0.370000	   -0.120000	    0.240000	   24.011719
   11.1479	  0.001500	  0.025500	  1.008500	   -0.360000	   -0.020000	    0.160000	   24.046875
   11.1579	  0.003000	  0.024000	  1.005000	   -0.340000	   -0.090000	    0.270000	   24.066406
   11.1679	  0.000000	  0.026500	  1.007500	   -0.410000	   -0.150000	    0.280000	   24.070313
   11.1779	  0.000000	  0.026500	  1.008000	   -0.390000	   -0.230000	    0.200000	   24.046875
   11.1879	  0.000000	  0.026000	  1.007000	   -0.380000	   -0.170000	    0.270000	   24.046875
   11.1979	 -0.002000	  0.027000	  1.008500	   -0.410000	   -0.200000	    0.210000	   24.039063
   11.2079	 -0.004000	  0.026000	  1.008000	   -0.310000	   -0.170000	    0.300000	   24.027344
   11.2179	 -0.003000	  0.024500	  1.009500	   -0.410000	   -0.110000	    0.180000	   24.042969
   11.2279	 -0.002500	  0.025500	  1.009500	   -0.410000	   -0.150000	    0.250000	   24.058594
   11.2379	 -0.002500	  0.025000	  1.006500	   -0.360000	   -0.110000	    0.160000	   24.054688
   11.2479	 -0.001000	  0.025000	  1.009000	   -0.510000	   -0.190000	    0.220000	   24.058594
   11.2579	  0.000500	  0.025500	  1.009000	   -0.500000	   -0.040000	    0.240000	   24.023438
   11.2679	  0.000500	  0.026000	  1.006500	   -0.320000	   -0.230000	    0.230000	   24.046875
   11.2779	  0.001500	  0.025000	  1.006500	   -0.410000	   -0.180000	    0.290000	   24.046875
   11.2879	  0.002000	  0.026000	  1.007000	   -0.420000	   -0.150000	    0.350000	   24.039063
   11.2979	 -0.000500	  0.025500	  1.008000	   -0.460000	   -0.330000	    0.350000	   24.058594
   11.3079	  0.000500	  0.026000	  1.010500	   -0.410000	   -0.240000	    0.190000	   24.054688
   11.3179	  0.001000	  0.024500	  1.009500	   -0.450000	   -0.110000	    0.330000	   24.023438
   11.3279	  0.000500	  0.025500	  1.010000	   -0.420000	   -0.180000	    0.290000	   24.054688
   11.3379	  0.000000	  0.026500	  1.007500	   -0.370000	   -0.070000	    0.250000	   24.058594
   11.3479	  0.002500	  0.026000	  1.006500	   -0.410000	   -0.130000	    0.230000	   24.039063
   11.3579	  0.002500	  0.025500	  1.007000	   -0.380000	   -0.200000	    0.220000	   24.042969
   11.3679	 -0.001000	  0.025500	  1.006500	   -0.320000	    0.040000	    0.210000	   24.039063
   11.3779	 -0.000500	  0.025500	  1.009000	   -0.400000	   -0.140000	    0.250000	   24.042969
   11.3879	 -0.002500	  0.024500	  1.008000	   -0.420000	   -0.080000	    0.180000	   24.046875
   11.3979	 -0.003500	  0.024000	  1.007500	   -0.410000	   -0.060000	    0.230000	   24.050781
   11.4079	 -0.003000	  0.023500	  1.009000	   -0.260000	   -0.120000	    0.250000	   24.031250
   11.4179	 -0.003000	  0.022500	  1.008500	   -0.490000	   -0.110000	    0.240000	   24.054688
   11.4279	 -0.003000	  0.024000	  1.007000	   -0.420000	   -0.210000	    0.280000	   24.031250
   11.4379	 -0.003500	  0.022000	  1.008500	   -0.350000	   -0.130000	    0.260000	   24.031250
   11.4479	  0.001000	  0.024000	  1.008500	   -0.570000	   -0.130000	    0.300000	   24.027344
   11.4579	  0.000500	  0.024500	  1.007500	   -0.420000	   -0.050000	    0.200000	   24.054688
   11.4679	  0.001000	  0.025000	  1.007500	   -0.460000	   -0.080000	    0.300000	   24.050781
   11.4779	  0.002000	  0.027000	  1.009000	   -0.420000	   -0.230000	    0.380000	   24.050781
   11.4879	  0.001500	  0.025000	  1.008000	   -0.300000	   -0.240000	    0.240000	   24.039063
   11.4979	 -0.000500	  0.026500	  1.009500	   -0.450000	   -0.230000	    0.330000	   24.046875
   11.5079	  0.000000	  0.025000	  1.009500	   -0.380000	   -0.250000	    0.200000	   24.085938
   11.5179	  0.001000	  0.026000	  1.009000	   -0.370000	   -0.210000	    0.250000	   24.058594
   11.5279	  0.000000	  0.025500	  1.009500	   -0.380000	   -0.020000	    0.240000	   24.070313
   11.5379	  0.002000	  0.026500	  1.007000	   -0.370000	   -0.120000	    0.330000	   24.039063
   11.5479	  0.004000	  0.024000	  1.006500	   -0.510000	   -0.160000	    0.260000	   24.054688
   11.5579	  0.001500	  0.026500	  1.006500	   -0.360000	   -0.240000	    0.310000	   24.074219
   11.5679	 -0.001000	  0.026000	  1.007000	   -0.390000	   -0.210000	    0.290000	   24.058594
   11.5779	 -0.000500	  0.026000	  1.006000	   -0.430000	   -0.080000	    0.330000	   24.082031
   11.5879	 -0.003000	  0.024000	  1.009500	   -0.270000	   -0.070000	    0.200000	   24.082031
   11.5979	 -0.003500	  0.025000	  1.009000	   -0.440000	   -0.150000	    0.160000	   24.058594
   11.6079	 -0.002000	  0.023000	  1.007000	   -0.460000	   -0.140000	    0.220000	   24.035156
   11.6179	 -0.002500	  0.025000	  1.009000	   -0.420000	   -0.180000	    0.380000	   24.031250
   11.6279	 -0.001500	  0.024500	  1.009000	   -0.420000	   -0.070000	    0.200000	   24.058594
   11.6379	  0.000500	  0.025000	  1.008000	   -0.470000	   -0.070000	    0.330000	   24.058594
   11.6479	  0.002500	  0.025000	  1.008500	   -0.460000	   -0.150000	    0.220000	   24.023438
   11.6579	  0.003000	  0.025000	  1.008500	   -0.460000	   -0.190000	    0.240000	   24.027344
   11.6679	  0.002500	  0.026000	  1.009000	   -0.390000	   -0.150000	    0.200000	   24.050781
   11.6779	  0.002500	  0.026500	  1.007000	   -0.320000	   -0.160000	    0.210000	   24.046875
   11.6879	  0.001000	  0.025500	  1.010000	   -0.350000	   -0.180000	    0.450000	   24.058594
   11.6979	  0.001000	  0.025000	  1.010000	   -0.330000	   -0.080000	    0.180000	   24.070313
   11.7079	  0.000500	  0.023500	  1.009000	   -0.260000	   -0.040000	    0.230000	   24.054688
   11.7179	 -0.001000	  0.023500	  1.008000	   -0.380000	   -0.050000	    0.180000	   24.050781
   11.7279	  0.001000	  0.025500	  1.008500	   -0.440000	   -0.100000	    0.210000	   24.066406
   11.7379	  0.002500	  0.025000	  1.007500	   -0.410000	   -0.150000	    0.330000	   24.054688
   11.7479	 -0.002000	  0.025500	  1.005000	   -0.390000	   -0.230000	    0.310000	   24.050781
   11.7579	 -0.001500	  0.025500	  1.007000	   -0.330000	   -0.160000	    0.280000	   24.058594
   11.7679	 -0.001000	  0.024500	  1.005500	   -0.290000	   -0.100000	    0.130000	   24.058594
   11.7779	 -0.002000	  0.025500	  1.009500	   -0.340000	   -0.130000	    0.200000	   24.054688
   11.7879	 -0.004500	  0.023000	  1.008500	   -0.410000	   -0.090000	    0.240000	   24.046875
   11.7979	 -0.002000	  0.024500	  1.007000	   -0.410000	    0.010000	    0.240000	   24.062500
   11.8079	 -0.001500	  0.023500	  1.008500	   -0.430000	   -0.010000	    0.290000	   24.058594
   11.8179	 -0.002000	  0.025500	  1.009000	   -0.440000	   -0.090000	    0.280000	   24.054688
   11.8279	 -0.000500	  0.025500	  1.005000	   -0.410000	   -0.170000	    0.260000	   24.062500
   11.8379	  0.002000	  0.026000	  1.011000	   -0.460000	   -0.180000	    0.310000	   24.062500
   11.8479	  0.001500	  0.024500	  1.008000	   -0.350000	   -0.210000	    0.280000	   24.054688
   11.8579	  0.001000	  0.026500	  1.007000	   -0.460000	   -0.270000	    0.230000	   24.050781
   11.8679	  0.000500	  0.025500	  1.008000	   -0.410000	   -0.010000	    0.190000	   24.054688
   11.8779	  0.000500	  0.024500	  1.008000	   -0.420000	   -0.050000	    0.240000	   24.046875
   11.8879	  0.000000	  0.024500	  1.007500	   -0.410000	   -0.240000	    0.220000	   24.062500
   11.8979	  0.000000	  0.024000	  1.011000	   -0.330000	   -0.230000	    0.220000	   24.054688
   11.9079	 -0.000500	  0.024000	  1.007500	   -0.370000	   -0.130000	    0.220000	   24.046875
   11.9179	 -0.001000	  0.025500	  1.007500	   -0.500000	   -0.190000	    0.230000	   24.039063
   11.9279	  0.001500	  0.026000	  1.008500	   -0.370000	   -0.170000	    0.210000	   24.054688
   11.9379	  0.000500	  0.024500	  1.006000	   -0.410000	   -0.130000	    0.150000	   24.042969
   11.9479	 -0.002500	  0.025000	  1.008000	   -0.450000	   -0.080000	    0.290000	   24.066406
   11.9579	 -0.001500	  0.025500	  1.007000	   -0.320000	   -0.060000	    0.310000	   24.062500
   11.9683	 -0.000500	  0.026000	  1.005500	   -0.370000	   -0.210000	    0.240000	   24.050781
   11.9779	 -0.002500	  0.026000	  1.009500	   -0.280000	   -0.160000	    0.350000	   24.039063
   11.9879	 -0.000500	  0.026000	  1.006500	   -0.370000	   -0.030000	    0.260000	   24.054688
   11.9979	 -0.001500	  0.025500	  1.007500	   -0.430000	   -0.130000	    0.250000	   24.082031
   12.0079	 -0.002500	  0.027500	  1.010500	   -0.420000	   -0.050000	    0.260000	   24.042969
   12.0179	  0.001000	  0.025000	  1.008000	   -0.410000	   -0.220000	    0.250000	   24.039063
   12.0279	  0.001000	  0.025000	  1.008500	   -0.430000	   -0.180000	    0.200000	   24.050781
   12.0379	 -0.000500	  0.025500	  1.009000	   -0.410000	   -0.170000	    0.200000	   24.046875
   12.0479	  0.001000	  0.025500	  1.008000	   -0.500000	   -0.080000	    0.260000	   24.019531
   12.0579	 -0.000500	  0.025500	  1.006000	   -0.440000	   -0.220000	    0.280000	   24.027344
   12.0679	  0.000000	  0.024500	  1.009000	   -0.350000	   -0.120000	    0.260000	   24.058594
   12.0779	  0.000500	  0.024500	  1.010500	   -0.490000	   -0.160000	    0.140000	   24.058594
   12.0879	  0.000500	  0.024500	  1.008000	   -0.310000	   -0.130000	    0.240000	   24.042969
   12.0979	  0.000000	  0.025500	  1.008500	   -0.400000	   -0.100000	    0.210000	   24.066406
   12.1080	  0.002000	  0.026000	  1.008500	   -0.370000	   -0.260000	    0.290000	   24.066406
   12.1179	  0.003000	  0.024500	  1.005500	   -0.380000	   -0.070000	    0.230000	   24.050781
   12.1279	 -0.000500	  0.026000	  1.007500	   -0.380000	   -0.230000	    0.240000	   24.042969
   12.1379	 -0.001000	  0.026000	  1.007000	   -0.480000	   -0.090000	    0.200000	   24.042969
   12.1479	  0.000500	  0.027000	  1.006000	   -0.480000	   -0.150000	    0.270000	   24.046875
   12.1579	 -0.002500	  0.026500	  1.008500	   -0.410000	   -0.200000	    0.260000	   24.054688
   12.1679	 -0.002500	  0.025500	  1.009000	   -0.420000	   -0.170000	    0.310000	   24.070313
   12.1779	  0.000000	  0.025500	  1.006000	   -0.450000	   -0.130000	    0.260000	   24.058594
   12.1879	 -0.003000	  0.024500	  1.007500	   -0.410000	   -0.030000	    0.310000	   24.058594
   12.1979	 -0.002000	  0.024500	  1.008500	   -0.370000	   -0.050000	    0.300000	   24.054688
   12.2080	  0.001000	  0.025500	  1.008000	   -0.430000	   -0.130000	    0.190000	   24.082031
   12.2179	 -0.000500	  0.025000	  1.008500	   -0.310000	   -0.040000	    0.240000	   24.050781
   12.2279	  0.000500	  0.024000	  1.008000	   -0.350000	   -0.020000	    0.130000	   24.023438
   12.2379	  0.001500	  0.025000	  1.007000	   -0.450000	   -0.040000	    0.190000	   24.050781
   12.2479	  0.001000	  0.023500	  1.006500	   -0.400000	   -0.110000	    0.260000	   24.050781
   12.2579	 -0.001000	  0.024000	  1.008500	   -0.330000	   -0.180000	    0.310000	   24.046875
   12.2679	  0.000000	  0.023000	  1.009500	   -0.460000	   -0.110000	    0.380000	   24.050781
   12.2779	  0.001000	  0.024000	  1.008500	   -0.350000	   -0.160000	    0.300000	   24.070313
   12.2879	  0.001000	  0.025500	  1.009000	   -0.340000	   -0.150000	    0.250000	   24.042969
   12.2979	  0.000000	  0.026000	  1.008000	   -0.290000	   -0.080000	    0.250000	   24.042969
   12.3080	  0.004000	  0.027000	  1.006500	   -0.310000	   -0.100000	    0.250000	   24.058594
   12.3179	  0.000000	  0.025000	  1.006500	   -0.400000	   -0.200000	    0.340000	   24.031250
   12.3279	 -0.000500	  0.025500	  1.006000	   -0.340000	   -0.070000	    0.280000	   24.027344
   12.3379	  0.001000	  0.027500	  1.008000	   -0.380000	   -0.130000	    0.290000	   24.042969
   12.3479	 -0.000500	  0.027000	  1.007500	   -0.490000	   -0.060000	    0.220000	   24.054688
   12.3579	 -0.002000	  0.026000	  1.007000	   -0.420000	   -0.210000	    0.270000	   24.082031
   12.3679	 -0.001500	  0.025500	  1.009000	   -0.390000	   -0.200000	    0.270000	   24.066406
   12.3779	  0.000000	  0.024500	  1.006000	   -0.390000	   -0.200000	    0.270000	   24.039063
   12.3879	 -0.002000	  0.025500	  1.009000	   -0.360000	   -0.070000	    0.240000	   24.070313
   12.3979	 -0.002500	  0.025000	  1.008500	   -0.490000	   -0.140000	    0.380000	   24.050781
   12.4080	  0.000500	  0.025500	  1.009500	   -0.310000	   -0.020000	    0.190000	   24.039063
   12.4179	  0.000000	  0.025000	  1.009000	   -0.420000	   -0.100000	    0.310000	   24.050781
   12.4279	 -0.000500	  0.025000	  1.009500	   -0.430000	   -0.140000	    0.200000	   24.050781
   12.4379	 -0.000500	  0.024000	  1.007000	   -0.400000	   -0.160000	    0.260000	   24.035156
   12.4479	  0.001500	  0.023500	  1.009500	   -0.440000	   -0.170000	    0.400000	   24.054688
   12.4579	  0.000000	  0.024500	  1.009000	   -0.450000	   -0.260000	    0.260000	   24.039063
   12.4679	  0.000500	  0.024500	  1.010000	   -0.350000	   -0.150000	    0.220000	   24.046875
   12.4779	  0.001500	  0.025500	  1.006000	   -0.360000	   -0.070000	    0.220000	   24.050781
   12.4879	  0.002000	  0.025500	  1.008000	   -0.480000	   -0.090000	    0.270000	   24.082031
   12.4979	  0.001000	  0.026000	  1.007000	   -0.430000	   -0.160000	    0.330000	   24.078125
   12.5080	  0.000500	  0.026000	  1.006000	   -0.440000	   -0.100000	    0.320000	   24.109375
