ï»¿Time_s    	AccX_g    	AccY_g    	AccZ_g    	GyroX_degs  	GyroY_degs  	GyroZ_degs  	IMU_Temperature
    0.2151	  0.005000	  0.026500	  1.008500	   -0.390000	   -0.090000	    0.410000	   24.195313
    0.2251	  0.005500	  0.027000	  1.008000	   -0.410000	   -0.130000	    0.260000	   24.199219
    0.2351	  0.007500	  0.028000	  1.007500	   -0.410000	   -0.130000	    0.240000	   24.187500
    0.2451	  0.008000	  0.027000	  1.007500	   -0.310000	   -0.190000	    0.230000	   24.175781
    0.2551	  0.008000	  0.027000	  1.007500	   -0.350000	   -0.190000	    0.390000	   24.183594
    0.2651	  0.009500	  0.026500	  1.008000	   -0.420000	   -0.050000	    0.160000	   24.179688
    0.2751	  0.009500	  0.026500	  1.008000	   -0.260000	   -0.130000	    0.100000	   24.171875
    0.2851	  0.009000	  0.028000	  1.007000	   -0.360000	   -0.190000	    0.380000	   24.179688
    0.2951	  0.011500	  0.027500	  1.009000	   -0.350000	   -0.160000	    0.250000	   24.195313
    0.3051	  0.009500	  0.026000	  1.005500	   -0.440000	   -0.120000	    0.260000	   24.187500
    0.3151	  0.005000	  0.028000	  1.008000	   -0.390000	   -0.210000	    0.300000	   24.164063
    0.3253	  0.005500	  0.027500	  1.009000	   -0.260000	   -0.330000	    0.160000	   24.160156
    0.3351	  0.006000	  0.027000	  1.007500	   -0.400000	   -0.180000	    0.250000	   24.207031
    0.3451	  0.000500	  0.027500	  1.010000	   -0.430000	   -0.070000	    0.220000	   24.214844
    0.3551	  0.000000	  0.025500	  1.009000	   -0.240000	   -0.140000	    0.220000	   24.207031
    0.3651	  0.003500	  0.026500	  1.008000	   -0.360000	   -0.120000	    0.210000	   24.203125
    0.3751	  0.001000	  0.025500	  1.010000	   -0.470000	   -0.180000	    0.140000	   24.191406
    0.3851	  0.001000	  0.026500	  1.008500	   -0.360000	   -0.150000	    0.300000	   24.195313
    0.3951	  0.006500	  0.026500	  1.008000	   -0.510000	   -0.260000	    0.370000	   24.179688
    0.4051	  0.006000	  0.027000	  1.008500	   -0.310000	   -0.070000	    0.240000	   24.191406
    0.4151	  0.007000	  0.026000	  1.007500	   -0.310000	   -0.160000	    0.310000	   24.218750
    0.4251	  0.008500	  0.027000	  1.008500	   -0.380000	   -0.180000	    0.210000	   24.222656
    0.4352	  0.008000	  0.027000	  1.008500	   -0.370000	   -0.050000	    0.240000	   24.187500
    0.4451	  0.008000	  0.028000	  1.008000	   -0.440000	   -0.170000	    0.190000	   24.207031
    0.4551	  0.008000	  0.027000	  1.008500	   -0.460000	   -0.200000	    0.190000	   24.195313
    0.4651	  0.008500	  0.026000	  1.010000	   -0.340000	    0.010000	    0.280000	   24.195313
    0.4751	  0.009000	  0.027500	  1.008000	   -0.330000	   -0.130000	    0.270000	   24.203125
    0.4851	  0.009500	  0.026000	  1.008000	   -0.350000	   -0.050000	    0.240000	   24.214844
    0.4951	  0.010500	  0.025500	  1.007000	   -0.340000	   -0.060000	    0.230000	   24.183594
    0.5051	  0.008000	  0.026500	  1.005500	   -0.330000	   -0.130000	    0.240000	   24.179688
    0.5151	  0.005500	  0.026500	  1.007000	   -0.420000	   -0.130000	    0.300000	   24.179688
    0.5251	  0.005000	  0.028500	  1.007500	   -0.350000	   -0.080000	    0.180000	   24.207031
    0.5352	  0.004000	  0.027500	  1.009000	   -0.380000	   -0.210000	    0.330000	   24.214844
    0.5451	 -0.000500	  0.027000	  1.008500	   -0.350000	   -0.070000	    0.270000	   24.195313
    0.5551	  0.000000	  0.027000	  1.008000	   -0.330000	   -0.230000	    0.220000	   24.167969
    0.5651	  0.003000	  0.024500	  1.008500	   -0.270000	   -0.190000	    0.180000	   24.156250
    0.5751	  0.003000	  0.024500	  1.006500	   -0.350000	   -0.260000	    0.330000	   24.187500
    0.5851	  0.002000	  0.026500	  1.008500	   -0.470000	   -0.040000	    0.230000	   24.207031
    0.5951	  0.006500	  0.027000	  1.009000	   -0.490000	   -0.140000	    0.220000	   24.199219
    0.6051	  0.007500	  0.026500	  1.007000	   -0.430000	   -0.270000	    0.300000	   24.187500
    0.6151	  0.005000	  0.028000	  1.009000	   -0.300000	   -0.180000	    0.300000	   24.179688
    0.6251	  0.008000	  0.028500	  1.008500	   -0.450000	   -0.200000	    0.180000	   24.195313
    0.6352	  0.008000	  0.027000	  1.008000	   -0.410000	   -0.210000	    0.260000	   24.183594
    0.6451	  0.006500	  0.027000	  1.009000	   -0.350000	   -0.170000	    0.230000	   24.195313
    0.6551	  0.009000	  0.027000	  1.008500	   -0.390000	   -0.010000	    0.290000	   24.195313
    0.6652	  0.009500	  0.026500	  1.008000	   -0.280000	   -0.110000	    0.200000	   24.183594
    0.6751	  0.008500	  0.026500	  1.009500	   -0.450000	   -0.260000	    0.270000	   24.203125
    0.6852	  0.009500	  0.025500	  1.007000	   -0.280000	   -0.140000	    0.240000	   24.191406
    0.6952	  0.008000	  0.027000	  1.006000	   -0.340000	   -0.050000	    0.270000	   24.187500
    0.7052	  0.005500	  0.026500	  1.008000	   -0.400000	   -0.140000	    0.310000	   24.203125
    0.7152	  0.004500	  0.028500	  1.007000	   -0.310000	   -0.210000	    0.180000	   24.187500
    0.7252	  0.003500	  0.027000	  1.009000	   -0.520000	   -0.190000	    0.310000	   24.222656
    0.7352	  0.001000	  0.026500	  1.011000	   -0.410000	   -0.170000	    0.250000	   24.191406
    0.7452	  0.000500	  0.027000	  1.006500	   -0.380000	   -0.140000	    0.270000	   24.191406
    0.7552	  0.001000	  0.026000	  1.009000	   -0.340000	   -0.170000	    0.280000	   24.191406
    0.7652	  0.003000	  0.025500	  1.006500	   -0.340000	   -0.110000	    0.230000	   24.179688
    0.7752	  0.004500	  0.026500	  1.009000	   -0.420000	   -0.170000	    0.330000	   24.171875
    0.7852	  0.005000	  0.026000	  1.009000	   -0.380000	   -0.050000	    0.270000	   24.191406
    0.7952	  0.007000	  0.026000	  1.007500	   -0.350000	   -0.210000	    0.360000	   24.183594
    0.8052	  0.005500	  0.026000	  1.008000	   -0.520000	   -0.250000	    0.330000	   24.191406
    0.8152	  0.007000	  0.026000	  1.008000	   -0.360000	   -0.030000	    0.320000	   24.195313
    0.8252	  0.007000	  0.026000	  1.007000	   -0.350000	   -0.080000	    0.250000	   24.183594
    0.8352	  0.006000	  0.026000	  1.008000	   -0.410000	   -0.270000	    0.280000	   24.207031
    0.8452	  0.008000	  0.026500	  1.007500	   -0.390000	   -0.060000	    0.290000	   24.203125
    0.8552	  0.009500	  0.027500	  1.008000	   -0.380000	   -0.240000	    0.240000	   24.187500
    0.8652	  0.007000	  0.027000	  1.008000	   -0.450000	   -0.210000	    0.210000	   24.195313
    0.8752	  0.006000	  0.026000	  1.007000	   -0.340000	   -0.150000	    0.160000	   24.203125
    0.8852	  0.008500	  0.026500	  1.006500	   -0.460000	   -0.080000	    0.270000	   24.195313
    0.8952	  0.006000	  0.027500	  1.007000	   -0.380000	   -0.140000	    0.240000	   24.207031
    0.9052	  0.003000	  0.027000	  1.007500	   -0.350000	   -0.090000	    0.190000	   24.218750
    0.9152	  0.002500	  0.027000	  1.008000	   -0.280000	   -0.160000	    0.290000	   24.199219
    0.9252	  0.004000	  0.026500	  1.008500	   -0.320000	   -0.140000	    0.200000	   24.203125
    0.9352	  0.001500	  0.026500	  1.007500	   -0.420000	   -0.140000	    0.290000	   24.222656
    0.9452	  0.001500	  0.026000	  1.008500	   -0.290000	   -0.110000	    0.170000	   24.195313
    0.9552	  0.005500	  0.025000	  1.008000	   -0.400000	   -0.110000	    0.340000	   24.179688
    0.9652	  0.005000	  0.027000	  1.008000	   -0.440000	   -0.150000	    0.270000	   24.195313
    0.9752	  0.005000	  0.026500	  1.009000	   -0.390000	   -0.180000	    0.340000	   24.199219
    0.9852	  0.008000	  0.027000	  1.006500	   -0.450000	   -0.260000	    0.370000	   24.207031
    0.9952	  0.007000	  0.026000	  1.010000	   -0.370000	   -0.310000	    0.290000	   24.218750
    1.0052	  0.006000	  0.026500	  1.009000	   -0.270000	   -0.190000	    0.240000	   24.207031
    1.0152	  0.010000	  0.027000	  1.009500	   -0.490000	   -0.110000	    0.270000	   24.214844
    1.0252	  0.009500	  0.026000	  1.008000	   -0.360000	    0.010000	    0.160000	   24.195313
    1.0352	  0.009500	  0.027500	  1.007000	   -0.420000	   -0.180000	    0.230000	   24.179688
    1.0452	  0.009500	  0.027500	  1.007000	   -0.360000	   -0.020000	    0.290000	   24.195313
    1.0552	  0.010000	  0.025500	  1.007000	   -0.410000	   -0.100000	    0.290000	   24.207031
    1.0652	  0.007000	  0.025500	  1.007500	   -0.280000	   -0.090000	    0.220000	   24.199219
    1.0754	  0.004000	  0.026500	  1.007500	   -0.380000	   -0.020000	    0.240000	   24.203125
    1.0852	  0.003500	  0.027500	  1.008000	   -0.240000	   -0.150000	    0.310000	   24.203125
    1.0952	  0.002000	  0.027500	  1.010500	   -0.430000	   -0.190000	    0.290000	   24.187500
    1.1052	  0.002000	  0.025500	  1.009000	   -0.330000	   -0.040000	    0.240000	   24.191406
    1.1152	  0.002000	  0.025000	  1.009000	   -0.370000	   -0.130000	    0.190000	   24.164063
    1.1252	  0.001500	  0.024500	  1.007000	   -0.300000	   -0.170000	    0.240000	   24.191406
    1.1352	  0.003500	  0.026000	  1.008500	   -0.390000	   -0.090000	    0.360000	   24.183594
    1.1452	  0.004500	  0.026500	  1.007000	   -0.560000	   -0.190000	    0.190000	   24.183594
    1.1552	  0.005500	  0.027000	  1.007500	   -0.540000	   -0.180000	    0.310000	   24.175781
    1.1652	  0.006500	  0.026500	  1.007500	   -0.540000	   -0.160000	    0.320000	   24.187500
    1.1752	  0.006500	  0.026500	  1.007500	   -0.290000	   -0.170000	    0.300000	   24.207031
    1.1852	  0.007500	  0.026500	  1.010000	   -0.440000	   -0.230000	    0.320000	   24.207031
    1.1952	  0.008000	  0.027500	  1.009500	   -0.480000	   -0.080000	    0.300000	   24.210938
    1.2052	  0.008000	  0.026500	  1.009000	   -0.510000	   -0.230000	    0.370000	   24.195313
    1.2152	  0.009000	  0.028500	  1.009000	   -0.440000	   -0.220000	    0.260000	   24.207031
    1.2252	  0.009500	  0.027500	  1.008000	   -0.430000	   -0.110000	    0.240000	   24.199219
    1.2352	  0.007000	  0.026500	  1.009000	   -0.330000	   -0.120000	    0.240000	   24.199219
    1.2452	  0.008000	  0.026500	  1.007000	   -0.310000	   -0.020000	    0.300000	   24.191406
    1.2552	  0.008000	  0.026500	  1.006500	   -0.340000	   -0.010000	    0.240000	   24.179688
    1.2652	  0.005000	  0.026500	  1.008500	   -0.500000	   -0.080000	    0.170000	   24.207031
    1.2752	  0.004500	  0.027000	  1.008000	   -0.460000	   -0.030000	    0.330000	   24.199219
    1.2852	  0.004000	  0.025500	  1.008000	   -0.300000	   -0.090000	    0.190000	   24.195313
    1.2952	  0.002500	  0.026000	  1.009500	   -0.410000	   -0.180000	    0.160000	   24.210938
    1.3052	  0.002000	  0.026000	  1.006500	   -0.400000	   -0.310000	    0.230000	   24.199219
    1.3152	  0.003500	  0.025500	  1.007000	   -0.230000	   -0.240000	    0.320000	   24.179688
    1.3252	  0.002000	  0.025000	  1.011000	   -0.530000	   -0.220000	    0.280000	   24.179688
    1.3352	  0.004500	  0.024500	  1.006500	   -0.440000	   -0.010000	    0.270000	   24.187500
    1.3452	  0.004500	  0.025500	  1.008000	   -0.340000	   -0.200000	    0.280000	   24.191406
    1.3552	  0.005000	  0.025500	  1.009500	   -0.440000	   -0.170000	    0.340000	   24.195313
    1.3652	  0.005500	  0.026000	  1.008000	   -0.400000	   -0.210000	    0.310000	   24.207031
    1.3752	  0.006500	  0.026000	  1.007500	   -0.530000	   -0.070000	    0.290000	   24.210938
    1.3852	  0.007500	  0.027000	  1.009500	   -0.300000	   -0.050000	    0.290000	   24.203125
    1.3952	  0.008500	  0.027500	  1.008500	   -0.350000	   -0.160000	    0.290000	   24.214844
    1.4052	  0.009500	  0.028000	  1.007500	   -0.370000	   -0.030000	    0.270000	   24.238281
    1.4152	  0.009000	  0.028500	  1.006000	   -0.390000	   -0.080000	    0.170000	   24.207031
    1.4252	  0.009500	  0.026500	  1.005500	   -0.330000	   -0.260000	    0.320000	   24.183594
    1.4352	  0.007500	  0.027500	  1.007000	   -0.340000	   -0.270000	    0.280000	   24.187500
    1.4452	  0.007000	  0.027000	  1.008500	   -0.390000	   -0.070000	    0.070000	   24.218750
    1.4552	  0.005000	  0.029500	  1.006500	   -0.310000	   -0.210000	    0.190000	   24.195313
    1.4652	  0.004500	  0.027000	  1.007500	   -0.300000	   -0.020000	    0.200000	   24.187500
    1.4752	  0.001000	  0.027000	  1.008500	   -0.400000	   -0.190000	    0.340000	   24.214844
    1.4852	  0.001500	  0.026000	  1.007500	   -0.460000	   -0.080000	    0.180000	   24.207031
    1.4952	  0.001500	  0.026000	  1.009000	   -0.380000	   -0.240000	    0.410000	   24.187500
    1.5052	  0.002500	  0.025500	  1.007000	   -0.370000	   -0.140000	    0.320000	   24.171875
    1.5152	  0.002500	  0.026500	  1.008500	   -0.280000	   -0.160000	    0.280000	   24.183594
    1.5252	  0.004500	  0.026500	  1.007500	   -0.400000	   -0.170000	    0.300000	   24.207031
    1.5352	  0.006000	  0.025000	  1.008500	   -0.280000	   -0.140000	    0.200000	   24.187500
    1.5452	  0.005500	  0.025000	  1.008500	   -0.410000	   -0.080000	    0.310000	   24.179688
    1.5552	  0.007000	  0.027000	  1.007500	   -0.440000	   -0.110000	    0.350000	   24.164063
    1.5652	  0.007500	  0.026500	  1.007500	   -0.310000	    0.010000	    0.270000	   24.164063
    1.5752	  0.008000	  0.026500	  1.009500	   -0.310000	   -0.100000	    0.280000	   24.207031
    1.5852	  0.010000	  0.026000	  1.009000	   -0.390000	   -0.180000	    0.250000	   24.214844
    1.5952	  0.010000	  0.027500	  1.009000	   -0.480000	    0.010000	    0.280000	   24.199219
    1.6052	  0.009500	  0.026000	  1.007000	   -0.480000	    0.020000	    0.220000	   24.183594
    1.6152	  0.010500	  0.026500	  1.006500	   -0.330000	   -0.020000	    0.200000	   24.164063
    1.6252	  0.008500	  0.026500	  1.007000	   -0.400000	   -0.150000	    0.170000	   24.199219
    1.6352	  0.006000	  0.027500	  1.007500	   -0.510000	   -0.260000	    0.220000	   24.222656
    1.6452	  0.004500	  0.028000	  1.008500	   -0.330000	   -0.090000	    0.290000	   24.214844
    1.6552	  0.003000	  0.028000	  1.008000	   -0.260000	   -0.120000	    0.140000	   24.195313
    1.6652	  0.001000	  0.027500	  1.007500	   -0.420000	    0.020000	    0.300000	   24.195313
    1.6752	  0.000500	  0.025000	  1.008500	   -0.390000	   -0.130000	    0.230000	   24.179688
    1.6852	  0.003000	  0.025000	  1.007000	   -0.320000	   -0.120000	    0.300000	   24.199219
    1.6952	  0.001000	  0.024500	  1.006500	   -0.370000	   -0.140000	    0.260000	   24.203125
    1.7052	  0.003500	  0.027000	  1.010000	   -0.300000	   -0.170000	    0.290000	   24.222656
    1.7152	  0.008000	  0.025000	  1.006500	   -0.420000	   -0.130000	    0.260000	   24.214844
    1.7252	  0.006500	  0.027000	  1.007000	   -0.340000	   -0.220000	    0.190000	   24.179688
    1.7352	  0.005500	  0.026500	  1.009000	   -0.310000	   -0.220000	    0.290000	   24.183594
    1.7452	  0.008000	  0.026500	  1.009000	   -0.330000	   -0.180000	    0.340000	   24.187500
    1.7552	  0.008000	  0.026000	  1.008500	   -0.460000	   -0.170000	    0.270000	   24.179688
    1.7652	  0.007000	  0.027500	  1.010000	   -0.240000	   -0.050000	    0.310000	   24.210938
    1.7752	  0.010000	  0.027000	  1.008000	   -0.340000	    0.070000	    0.260000	   24.222656
    1.7852	  0.010500	  0.029000	  1.008500	   -0.340000	   -0.130000	    0.320000	   24.226563
    1.7952	  0.007500	  0.027500	  1.006000	   -0.330000	   -0.150000	    0.300000	   24.226563
    1.8052	  0.008000	  0.026000	  1.005500	   -0.460000	   -0.090000	    0.130000	   24.218750
    1.8152	  0.009500	  0.026500	  1.008000	   -0.290000	   -0.190000	    0.210000	   24.183594
    1.8252	  0.005000	  0.027000	  1.007500	   -0.440000	   -0.210000	    0.290000	   24.179688
    1.8352	  0.001500	  0.028000	  1.007000	   -0.400000	   -0.130000	    0.260000	   24.179688
    1.8452	  0.003500	  0.027000	  1.009000	   -0.250000	   -0.040000	    0.160000	   24.214844
    1.8552	  0.003000	  0.025000	  1.007500	   -0.300000	   -0.120000	    0.220000	   24.214844
    1.8652	 -0.000500	  0.025000	  1.008000	   -0.280000	   -0.140000	    0.150000	   24.222656
    1.8752	  0.001000	  0.025000	  1.007500	   -0.290000	   -0.200000	    0.280000	   24.210938
    1.8852	  0.005500	  0.026000	  1.007500	   -0.410000	   -0.100000	    0.290000	   24.195313
    1.8952	  0.004500	  0.025500	  1.010000	   -0.510000	   -0.250000	    0.380000	   24.195313
    1.9052	  0.005000	  0.026500	  1.006500	   -0.420000	   -0.200000	    0.280000	   24.191406
    1.9152	  0.008000	  0.025000	  1.007000	   -0.400000	   -0.150000	    0.320000	   24.191406
    1.9252	  0.005500	  0.026500	  1.009000	   -0.350000	   -0.070000	    0.290000	   24.175781
    1.9352	  0.005500	  0.027500	  1.009000	   -0.470000	   -0.200000	    0.220000	   24.195313
    1.9452	  0.008500	  0.026000	  1.007000	   -0.260000	   -0.120000	    0.240000	   24.199219
    1.9552	  0.010000	  0.026500	  1.010000	   -0.230000	   -0.020000	    0.210000	   24.210938
    1.9652	  0.009500	  0.028000	  1.007500	   -0.450000	   -0.220000	    0.350000	   24.203125
    1.9752	  0.011500	  0.028500	  1.008500	   -0.520000	   -0.210000	    0.180000	   24.183594
    1.9852	  0.011000	  0.028500	  1.007500	   -0.400000	   -0.210000	    0.240000	   24.183594
    1.9952	  0.007500	  0.028500	  1.006500	   -0.310000	   -0.060000	    0.130000	   24.187500
    2.0052	  0.006000	  0.028000	  1.009000	   -0.290000	   -0.250000	    0.250000	   24.195313
    2.0152	  0.004500	  0.026500	  1.008500	   -0.330000	   -0.230000	    0.250000	   24.214844
    2.0252	  0.001000	  0.026500	  1.007000	   -0.330000	   -0.030000	    0.290000	   24.207031
    2.0352	  0.000000	  0.026500	  1.009500	   -0.200000	   -0.010000	    0.260000	   24.203125
    2.0452	  0.002500	  0.026000	  1.007000	   -0.380000	   -0.130000	    0.260000	   24.222656
    2.0552	  0.001500	  0.025500	  1.008000	   -0.420000	   -0.160000	    0.170000	   24.214844
    2.0652	  0.002500	  0.026000	  1.009500	   -0.420000	    0.030000	    0.250000	   24.210938
    2.0752	  0.006000	  0.025500	  1.009000	   -0.370000	   -0.270000	    0.340000	   24.195313
    2.0855	  0.006500	  0.026500	  1.007500	   -0.360000	   -0.230000	    0.280000	   24.210938
    2.0952	  0.005000	  0.026500	  1.007500	   -0.290000	   -0.050000	    0.220000	   24.199219
    2.1052	  0.007000	  0.025000	  1.007500	   -0.450000	   -0.280000	    0.240000	   24.191406
    2.1152	  0.007000	  0.026000	  1.009000	   -0.390000	   -0.140000	    0.330000	   24.187500
    2.1252	  0.008500	  0.025500	  1.007000	   -0.470000	   -0.180000	    0.270000	   24.195313
    2.1352	  0.008500	  0.026500	  1.008000	   -0.430000	   -0.030000	    0.330000	   24.210938
    2.1453	  0.012000	  0.027000	  1.010000	   -0.410000	   -0.190000	    0.230000	   24.195313
    2.1552	  0.012000	  0.029000	  1.008500	   -0.290000	   -0.240000	    0.220000	   24.207031
    2.1652	  0.010500	  0.026500	  1.007500	   -0.330000	   -0.210000	    0.300000	   24.195313
    2.1752	  0.009500	  0.027500	  1.008000	   -0.330000	   -0.070000	    0.180000	   24.207031
    2.1852	  0.008000	  0.026500	  1.010000	   -0.250000	   -0.150000	    0.140000	   24.207031
    2.1952	  0.003500	  0.026500	  1.007500	   -0.350000	   -0.240000	    0.230000	   24.191406
    2.2052	  0.000000	  0.026500	  1.007000	   -0.400000	   -0.130000	    0.140000	   24.214844
    2.2152	  0.002000	  0.024500	  1.010500	   -0.310000	   -0.140000	    0.180000	   24.214844
    2.2252	  0.001500	  0.025000	  1.007000	   -0.320000	   -0.090000	    0.120000	   24.210938
    2.2352	 -0.001500	  0.025500	  1.010000	   -0.510000	   -0.210000	    0.270000	   24.203125
    2.2453	  0.002000	  0.025000	  1.007000	   -0.350000	   -0.150000	    0.280000	   24.203125
    2.2552	  0.005000	  0.027000	  1.006500	   -0.390000	   -0.100000	    0.300000	   24.199219
    2.2652	  0.004000	  0.026500	  1.007000	   -0.380000	   -0.120000	    0.240000	   24.218750
    2.2752	  0.006500	  0.026000	  1.006000	   -0.370000	   -0.270000	    0.390000	   24.218750
    2.2852	  0.008500	  0.027000	  1.007000	   -0.400000	   -0.120000	    0.390000	   24.214844
    2.2952	  0.008000	  0.027000	  1.007500	   -0.330000	   -0.070000	    0.240000	   24.214844
    2.3052	  0.007000	  0.027500	  1.007000	   -0.420000	   -0.120000	    0.180000	   24.214844
    2.3152	  0.008500	  0.028000	  1.008500	   -0.410000	   -0.240000	    0.310000	   24.187500
    2.3252	  0.010000	  0.027500	  1.008000	   -0.270000	   -0.100000	    0.350000	   24.195313
    2.3352	  0.008500	  0.028500	  1.007000	   -0.320000	   -0.180000	    0.290000	   24.203125
    2.3453	  0.010500	  0.028500	  1.008000	   -0.390000	   -0.150000	    0.220000	   24.191406
    2.3552	  0.012000	  0.028000	  1.007000	   -0.240000	   -0.140000	    0.240000	   24.179688
    2.3652	  0.007000	  0.026500	  1.007500	   -0.400000	   -0.130000	    0.230000	   24.195313
    2.3752	  0.005500	  0.027000	  1.006000	   -0.280000	   -0.130000	    0.150000	   24.179688
    2.3852	  0.005500	  0.026500	  1.009500	   -0.380000	   -0.160000	    0.110000	   24.187500
    2.3952	  0.002000	  0.024000	  1.007500	   -0.280000	   -0.060000	    0.210000	   24.191406
    2.4052	  0.000000	  0.026000	  1.008500	   -0.390000	   -0.240000	    0.240000	   24.195313
    2.4152	  0.002000	  0.025500	  1.010000	   -0.440000	   -0.120000	    0.310000	   24.199219
    2.4252	  0.001500	  0.024500	  1.008500	   -0.480000	   -0.140000	    0.200000	   24.203125
    2.4352	  0.000000	  0.026500	  1.008500	   -0.440000	   -0.100000	    0.230000	   24.207031
    2.4453	  0.003500	  0.027500	  1.008500	   -0.460000	   -0.280000	    0.320000	   24.207031
    2.4552	  0.007000	  0.027000	  1.006500	   -0.440000	   -0.110000	    0.250000	   24.214844
    2.4652	  0.005500	  0.027000	  1.008000	   -0.400000	   -0.240000	    0.410000	   24.230469
    2.4752	  0.006500	  0.027500	  1.006500	   -0.350000	   -0.170000	    0.330000	   24.214844
    2.4852	  0.009000	  0.027500	  1.008000	   -0.310000	   -0.300000	    0.340000	   24.207031
    2.4952	  0.007500	  0.028000	  1.008500	   -0.230000	   -0.140000	    0.210000	   24.210938
    2.5052	  0.007000	  0.027000	  1.008500	   -0.350000	   -0.090000	    0.230000	   24.210938
    2.5152	  0.010000	  0.026000	  1.008000	   -0.380000	   -0.120000	    0.160000	   24.195313
    2.5252	  0.011500	  0.026500	  1.008000	   -0.400000	   -0.300000	    0.170000	   24.222656
    2.5352	  0.009000	  0.027500	  1.007500	   -0.480000	   -0.200000	    0.160000	   24.230469
    2.5453	  0.009000	  0.027000	  1.008000	   -0.460000	   -0.170000	    0.240000	   24.207031
    2.5552	  0.008000	  0.025500	  1.007500	   -0.250000	   -0.120000	    0.230000	   24.195313
    2.5652	  0.004500	  0.026500	  1.009500	   -0.340000	   -0.110000	    0.310000	   24.183594
    2.5752	  0.002000	  0.026500	  1.007500	   -0.350000	   -0.270000	    0.280000	   24.179688
    2.5852	  0.001000	  0.028000	  1.010000	   -0.460000	   -0.260000	    0.160000	   24.199219
    2.5952	  0.002000	  0.025500	  1.009500	   -0.320000	    0.060000	    0.220000	   24.222656
    2.6052	  0.000500	  0.024500	  1.007000	   -0.230000	   -0.080000	    0.210000	   24.210938
    2.6153	  0.000500	  0.025500	  1.008000	   -0.350000	   -0.150000	    0.380000	   24.222656
    2.6252	  0.004000	  0.025000	  1.006000	   -0.370000	   -0.180000	    0.310000	   24.210938
    2.6352	  0.004500	  0.025500	  1.008500	   -0.400000	   -0.190000	    0.290000	   24.195313
    2.6453	  0.005000	  0.026500	  1.006500	   -0.450000	    0.050000	    0.300000	   24.207031
    2.6552	  0.007500	  0.025500	  1.007000	   -0.380000	   -0.210000	    0.220000	   24.222656
    2.6652	  0.007500	  0.027500	  1.008500	   -0.380000	   -0.240000	    0.320000	   24.195313
    2.6752	  0.008000	  0.028500	  1.007500	   -0.400000	   -0.160000	    0.320000	   24.199219
    2.6852	  0.007500	  0.026000	  1.005000	   -0.330000	   -0.130000	    0.290000	   24.203125
    2.6952	  0.007500	  0.027000	  1.009500	   -0.380000	   -0.210000	    0.310000	   24.218750
    2.7052	  0.009500	  0.028000	  1.009500	   -0.320000	   -0.270000	    0.290000	   24.207031
    2.7153	  0.009500	  0.027000	  1.007000	   -0.410000	   -0.150000	    0.190000	   24.187500
    2.7252	  0.010500	  0.027000	  1.008000	   -0.290000	   -0.070000	    0.260000	   24.179688
    2.7352	  0.010500	  0.026500	  1.007000	   -0.450000	   -0.190000	    0.300000	   24.210938
    2.7453	  0.007000	  0.026500	  1.006500	   -0.330000	   -0.150000	    0.230000	   24.187500
    2.7552	  0.004500	  0.025500	  1.010000	   -0.360000	   -0.090000	    0.270000	   24.187500
    2.7653	  0.002000	  0.026500	  1.007500	   -0.240000	   -0.180000	    0.150000	   24.179688
    2.7752	  0.000500	  0.025000	  1.009000	   -0.320000	   -0.100000	    0.170000	   24.175781
    2.7853	  0.000500	  0.026000	  1.009500	   -0.280000	   -0.230000	    0.270000	   24.195313
    2.7953	  0.001500	  0.025500	  1.008000	   -0.370000	   -0.190000	    0.360000	   24.187500
    2.8053	  0.001500	  0.025500	  1.009000	   -0.470000	   -0.030000	    0.240000	   24.175781
    2.8153	  0.004500	  0.025500	  1.008500	   -0.310000	   -0.020000	    0.260000	   24.195313
    2.8253	  0.006500	  0.026000	  1.007000	   -0.410000	   -0.170000	    0.290000	   24.207031
    2.8353	  0.007500	  0.026500	  1.006500	   -0.520000	   -0.040000	    0.300000	   24.218750
    2.8453	  0.009500	  0.028000	  1.006500	   -0.420000	   -0.040000	    0.280000	   24.218750
    2.8553	  0.010500	  0.027500	  1.006500	   -0.300000	   -0.180000	    0.280000	   24.218750
    2.8653	  0.009500	  0.029000	  1.007500	   -0.400000	   -0.140000	    0.310000	   24.210938
    2.8753	  0.008000	  0.028000	  1.009500	   -0.500000	   -0.160000	    0.280000	   24.222656
    2.8853	  0.008500	  0.027500	  1.009000	   -0.480000	   -0.220000	    0.200000	   24.250000
    2.8953	  0.007000	  0.027000	  1.010500	   -0.310000	   -0.340000	    0.310000	   24.226563
    2.9053	  0.004500	  0.028000	  1.011500	   -0.360000	   -0.130000	    0.200000	   24.210938
    2.9153	  0.005500	  0.027500	  1.007000	   -0.230000	   -0.050000	    0.190000	   24.203125
    2.9253	  0.005000	  0.026000	  1.009500	   -0.450000	   -0.100000	    0.150000	   24.187500
    2.9353	  0.003500	  0.026000	  1.009000	   -0.400000	    0.080000	    0.220000	   24.207031
    2.9453	  0.004500	  0.026000	  1.006500	   -0.370000	   -0.190000	    0.180000	   24.195313
    2.9553	  0.005000	  0.026000	  1.010000	   -0.320000	   -0.270000	    0.230000	   24.199219
    2.9653	  0.005500	  0.025500	  1.007000	   -0.420000	    0.020000	    0.260000	   24.218750
    2.9753	  0.005000	  0.024500	  1.007000	   -0.370000	   -0.320000	    0.250000	   24.218750
    2.9853	  0.006000	  0.025000	  1.008500	   -0.380000	   -0.040000	    0.320000	   24.222656
    2.9953	  0.007000	  0.026500	  1.008000	   -0.410000	   -0.120000	    0.260000	   24.207031
    3.0053	  0.006000	  0.026500	  1.009000	   -0.450000	   -0.110000	    0.320000	   24.210938
    3.0153	  0.006500	  0.027500	  1.008000	   -0.490000	   -0.100000	    0.240000	   24.218750
    3.0253	  0.007500	  0.028500	  1.009000	   -0.450000	   -0.160000	    0.210000	   24.207031
    3.0353	  0.008000	  0.027500	  1.008000	   -0.540000	   -0.220000	    0.220000	   24.207031
    3.0453	  0.006500	  0.028000	  1.007000	   -0.310000	   -0.020000	    0.220000	   24.207031
    3.0553	  0.008000	  0.028000	  1.007500	   -0.340000	   -0.140000	    0.210000	   24.203125
    3.0653	  0.007000	  0.027000	  1.008000	   -0.430000	   -0.060000	    0.270000	   24.218750
    3.0753	  0.006500	  0.026500	  1.007500	   -0.270000	   -0.160000	    0.270000	   24.210938
    3.0853	  0.006500	  0.025500	  1.007500	   -0.280000	    0.000000	    0.270000	   24.210938
    3.0956	  0.006000	  0.025000	  1.007000	   -0.350000	   -0.160000	    0.220000	   24.207031
    3.1053	  0.006000	  0.023000	  1.007500	   -0.420000	   -0.180000	    0.360000	   24.222656
    3.1153	  0.004500	  0.024500	  1.006500	   -0.280000	   -0.150000	    0.190000	   24.242188
    3.1253	  0.003000	  0.025000	  1.006500	   -0.410000	   -0.090000	    0.240000	   24.230469
    3.1353	  0.003500	  0.024500	  1.008000	   -0.400000	   -0.280000	    0.230000	   24.214844
    3.1453	  0.004500	  0.025000	  1.008500	   -0.430000	    0.020000	    0.350000	   24.199219
    3.1553	  0.004500	  0.027000	  1.008000	   -0.370000	   -0.140000	    0.250000	   24.214844
    3.1653	  0.006000	  0.028000	  1.009000	   -0.380000	   -0.170000	    0.250000	   24.207031
    3.1753	  0.005500	  0.027500	  1.008000	   -0.390000	   -0.260000	    0.250000	   24.210938
    3.1853	  0.006500	  0.028000	  1.005000	   -0.420000	   -0.130000	    0.230000	   24.222656
    3.1953	  0.007000	  0.027000	  1.009000	   -0.300000	   -0.100000	    0.280000	   24.218750
    3.2053	  0.006500	  0.027500	  1.007500	   -0.350000	   -0.180000	    0.340000	   24.222656
    3.2153	  0.007000	  0.028500	  1.007000	   -0.320000	   -0.160000	    0.370000	   24.210938
    3.2253	  0.007000	  0.025500	  1.008500	   -0.400000	   -0.140000	    0.270000	   24.207031
    3.2353	  0.007000	  0.027000	  1.007500	   -0.450000	   -0.090000	    0.170000	   24.214844
    3.2453	  0.007500	  0.026500	  1.006500	   -0.450000	   -0.210000	    0.280000	   24.218750
    3.2553	  0.005000	  0.026000	  1.009500	   -0.260000	   -0.040000	    0.220000	   24.199219
    3.2653	  0.006000	  0.025500	  1.007000	   -0.340000	   -0.180000	    0.220000	   24.210938
    3.2753	  0.005500	  0.026000	  1.010000	   -0.320000	   -0.170000	    0.240000	   24.207031
    3.2853	  0.004500	  0.025500	  1.008000	   -0.470000	   -0.290000	    0.310000	   24.222656
    3.2953	  0.003500	  0.027000	  1.007500	   -0.360000	   -0.120000	    0.200000	   24.222656
    3.3053	  0.003500	  0.024000	  1.009000	   -0.370000	   -0.100000	    0.230000	   24.203125
    3.3153	  0.005000	  0.026500	  1.009000	   -0.330000	   -0.100000	    0.190000	   24.222656
    3.3253	  0.005000	  0.026000	  1.008000	   -0.440000	   -0.080000	    0.290000	   24.250000
    3.3353	  0.005500	  0.026500	  1.007500	   -0.410000	    0.030000	    0.300000	   24.226563
    3.3453	  0.005500	  0.028000	  1.008000	   -0.420000	   -0.160000	    0.200000	   24.210938
    3.3553	  0.006500	  0.025000	  1.008500	   -0.470000	   -0.160000	    0.280000	   24.218750
    3.3653	  0.007000	  0.027000	  1.005000	   -0.390000	   -0.210000	    0.250000	   24.242188
    3.3753	  0.007500	  0.026500	  1.007500	   -0.220000	   -0.120000	    0.230000	   24.246094
    3.3853	  0.006000	  0.026500	  1.008500	   -0.430000	   -0.130000	    0.230000	   24.246094
    3.3953	  0.006500	  0.026000	  1.006000	   -0.420000	   -0.110000	    0.260000	   24.230469
    3.4053	  0.007000	  0.027500	  1.009000	   -0.360000	   -0.110000	    0.240000	   24.214844
    3.4153	  0.004000	  0.026500	  1.008500	   -0.380000	   -0.130000	    0.320000	   24.210938
    3.4253	  0.004500	  0.026500	  1.006500	   -0.380000	   -0.130000	    0.190000	   24.218750
    3.4353	  0.005000	  0.027500	  1.009000	   -0.410000	   -0.210000	    0.260000	   24.230469
    3.4453	  0.004000	  0.025500	  1.007500	   -0.410000	   -0.190000	    0.200000	   24.234375
    3.4553	  0.005500	  0.026500	  1.008000	   -0.350000	   -0.040000	    0.150000	   24.238281
    3.4653	  0.005500	  0.027000	  1.008000	   -0.310000	   -0.060000	    0.210000	   24.218750
    3.4753	  0.005500	  0.025500	  1.008500	   -0.320000	    0.120000	    0.190000	   24.238281
    3.4853	  0.005000	  0.025500	  1.006000	   -0.250000	   -0.130000	    0.200000	   24.214844
    3.4953	  0.006500	  0.026000	  1.008000	   -0.440000	   -0.080000	    0.250000	   24.222656
    3.5053	  0.006500	  0.027000	  1.008000	   -0.380000	   -0.120000	    0.200000	   24.222656
    3.5153	  0.006500	  0.027000	  1.009000	   -0.470000	   -0.250000	    0.260000	   24.218750
    3.5253	  0.005500	  0.027000	  1.008000	   -0.240000	   -0.080000	    0.250000	   24.222656
    3.5353	  0.006500	  0.028000	  1.007500	   -0.340000	   -0.090000	    0.290000	   24.195313
    3.5453	  0.005500	  0.027500	  1.008500	   -0.260000	   -0.070000	    0.220000	   24.230469
    3.5553	  0.006000	  0.027500	  1.007000	   -0.420000	   -0.220000	    0.260000	   24.238281
    3.5653	  0.005000	  0.027500	  1.007500	   -0.430000	   -0.240000	    0.430000	   24.214844
    3.5753	  0.006500	  0.027500	  1.008000	   -0.400000	   -0.060000	    0.280000	   24.207031
    3.5853	  0.006000	  0.026500	  1.008500	   -0.460000	   -0.150000	    0.180000	   24.210938
    3.5953	  0.006500	  0.026500	  1.008500	   -0.500000	   -0.150000	    0.260000	   24.218750
    3.6053	  0.005500	  0.026500	  1.007000	   -0.380000	   -0.060000	    0.220000	   24.222656
    3.6153	  0.005000	  0.025500	  1.007500	   -0.480000	   -0.200000	    0.270000	   24.218750
    3.6253	  0.005500	  0.025000	  1.008500	   -0.360000	   -0.130000	    0.160000	   24.222656
    3.6353	  0.005500	  0.026000	  1.009500	   -0.400000	   -0.060000	    0.350000	   24.207031
    3.6453	  0.005000	  0.026000	  1.006500	   -0.340000	   -0.130000	    0.170000	   24.230469
    3.6553	  0.004500	  0.026000	  1.008000	   -0.280000	   -0.230000	    0.240000	   24.230469
    3.6653	  0.005500	  0.026000	  1.008000	   -0.330000	   -0.080000	    0.150000	   24.203125
    3.6753	  0.005500	  0.026500	  1.008000	   -0.350000	   -0.130000	    0.280000	   24.226563
    3.6853	  0.006000	  0.026500	  1.008500	   -0.490000	   -0.190000	    0.280000	   24.234375
    3.6953	  0.006000	  0.027500	  1.007000	   -0.320000	   -0.140000	    0.240000	   24.226563
    3.7053	  0.006000	  0.027000	  1.008000	   -0.480000	   -0.210000	    0.270000	   24.207031
    3.7153	  0.006500	  0.027000	  1.009000	   -0.470000	   -0.150000	    0.260000	   24.222656
    3.7253	  0.006000	  0.027000	  1.007000	   -0.400000	   -0.170000	    0.350000	   24.214844
    3.7353	  0.007000	  0.026500	  1.007000	   -0.310000	   -0.040000	    0.230000	   24.187500
    3.7453	  0.006500	  0.026500	  1.008500	   -0.400000	   -0.180000	    0.250000	   24.207031
    3.7553	  0.006000	  0.027000	  1.006500	   -0.470000	   -0.250000	    0.130000	   24.234375
    3.7653	  0.005500	  0.026500	  1.008000	   -0.360000	   -0.150000	    0.190000	   24.250000
    3.7753	  0.006000	  0.025500	  1.008000	   -0.340000	   -0.110000	    0.150000	   24.230469
    3.7853	  0.006500	  0.027000	  1.007500	   -0.350000	   -0.130000	    0.260000	   24.234375
    3.7953	  0.006000	  0.026500	  1.008000	   -0.400000	   -0.040000	    0.190000	   24.238281
    3.8053	  0.005500	  0.025000	  1.007500	   -0.210000	   -0.090000	    0.170000	   24.222656
    3.8153	  0.005500	  0.026000	  1.008500	   -0.460000	   -0.150000	    0.310000	   24.195313
    3.8253	  0.005000	  0.026500	  1.007000	   -0.510000	   -0.120000	    0.150000	   24.222656
    3.8353	  0.006000	  0.026500	  1.007500	   -0.310000	   -0.100000	    0.240000	   24.218750
    3.8454	  0.005000	  0.026000	  1.008500	   -0.260000	   -0.100000	    0.180000	   24.234375
    3.8553	  0.005500	  0.027000	  1.008000	   -0.430000	   -0.160000	    0.310000	   24.226563
    3.8653	  0.005500	  0.026500	  1.008500	   -0.400000	   -0.110000	    0.180000	   24.210938
    3.8753	  0.005500	  0.027000	  1.007000	   -0.470000	   -0.110000	    0.220000	   24.210938
    3.8853	  0.007000	  0.026000	  1.007500	   -0.410000	   -0.010000	    0.240000	   24.210938
    3.8953	  0.006500	  0.026000	  1.007000	   -0.300000	   -0.200000	    0.210000	   24.234375
    3.9053	  0.006000	  0.027000	  1.007000	   -0.480000	   -0.100000	    0.140000	   24.218750
    3.9153	  0.005000	  0.026500	  1.007500	   -0.320000	   -0.200000	    0.210000	   24.199219
    3.9253	  0.005500	  0.026500	  1.009000	   -0.320000	   -0.170000	    0.190000	   24.222656
    3.9353	  0.006000	  0.026500	  1.008500	   -0.350000	   -0.170000	    0.310000	   24.199219
    3.9454	  0.006000	  0.027000	  1.006500	   -0.390000	   -0.200000	    0.270000	   24.195313
    3.9553	  0.006000	  0.026500	  1.008000	   -0.350000	   -0.180000	    0.130000	   24.222656
    3.9653	  0.006000	  0.027500	  1.008500	   -0.430000	   -0.080000	    0.310000	   24.222656
    3.9753	  0.005000	  0.027000	  1.008000	   -0.370000	   -0.090000	    0.280000	   24.195313
    3.9853	  0.005500	  0.027000	  1.008000	   -0.450000	   -0.210000	    0.270000	   24.195313
    3.9953	  0.006500	  0.026500	  1.009000	   -0.540000	   -0.090000	    0.170000	   24.210938
    4.0053	  0.006500	  0.027000	  1.007500	   -0.320000	   -0.150000	    0.270000	   24.214844
    4.0153	  0.005500	  0.027000	  1.009500	   -0.290000	   -0.190000	    0.290000	   24.203125
    4.0253	  0.006500	  0.026500	  1.008500	   -0.450000	   -0.100000	    0.320000	   24.218750
    4.0353	  0.006500	  0.027500	  1.005500	   -0.430000	    0.010000	    0.320000	   24.199219
    4.0453	  0.006000	  0.027000	  1.009000	   -0.340000	   -0.100000	    0.180000	   24.214844
    4.0553	  0.006000	  0.026000	  1.008500	   -0.390000	   -0.020000	    0.290000	   24.242188
    4.0653	  0.006000	  0.027500	  1.007000	   -0.400000	   -0.180000	    0.250000	   24.207031
    4.0753	  0.005000	  0.027000	  1.008000	   -0.390000	   -0.150000	    0.360000	   24.191406
    4.0853	  0.006000	  0.026500	  1.008000	   -0.480000	   -0.080000	    0.300000	   24.210938
    4.0953	  0.006000	  0.025500	  1.006500	   -0.300000	   -0.200000	    0.140000	   24.230469
    4.1057	  0.004500	  0.026500	  1.008000	   -0.250000	   -0.200000	    0.270000	   24.214844
    4.1153	  0.005000	  0.028000	  1.007000	   -0.450000	   -0.090000	    0.260000	   24.246094
    4.1253	  0.006500	  0.026500	  1.007500	   -0.360000	   -0.070000	    0.340000	   24.230469
    4.1353	  0.005500	  0.027000	  1.010000	   -0.350000	   -0.130000	    0.220000	   24.226563
    4.1454	  0.005500	  0.027500	  1.007000	   -0.340000	   -0.120000	    0.290000	   24.222656
    4.1553	  0.005500	  0.026500	  1.008000	   -0.400000	   -0.150000	    0.220000	   24.199219
    4.1653	  0.005000	  0.026500	  1.007500	   -0.320000	   -0.050000	    0.240000	   24.207031
    4.1753	  0.005000	  0.026000	  1.007500	   -0.460000	   -0.110000	    0.300000	   24.222656
    4.1853	  0.005500	  0.027000	  1.008000	   -0.260000	   -0.040000	    0.170000	   24.222656
    4.1953	  0.005500	  0.027000	  1.008000	   -0.380000	   -0.080000	    0.200000	   24.214844
    4.2053	  0.006000	  0.027000	  1.006500	   -0.460000	   -0.210000	    0.290000	   24.222656
    4.2153	  0.006500	  0.026000	  1.008000	   -0.350000	   -0.030000	    0.280000	   24.207031
    4.2253	  0.005000	  0.026000	  1.008000	   -0.490000	   -0.210000	    0.200000	   24.218750
    4.2353	  0.005500	  0.026500	  1.007500	   -0.400000	   -0.060000	    0.260000	   24.238281
    4.2454	  0.006000	  0.027000	  1.008000	   -0.230000	    0.020000	    0.200000	   24.218750
    4.2553	  0.005500	  0.027000	  1.006000	   -0.420000	   -0.270000	    0.240000	   24.234375
    4.2653	  0.006000	  0.027000	  1.007000	   -0.460000	   -0.190000	    0.240000	   24.226563
    4.2753	  0.005000	  0.026000	  1.007500	   -0.420000	   -0.110000	    0.280000	   24.218750
    4.2853	  0.006000	  0.028000	  1.008000	   -0.370000	   -0.190000	    0.320000	   24.195313
    4.2953	  0.005000	  0.027500	  1.008500	   -0.380000	   -0.160000	    0.290000	   24.210938
    4.3053	  0.005500	  0.027000	  1.008000	   -0.490000	   -0.210000	    0.230000	   24.234375
    4.3154	  0.005500	  0.026500	  1.007000	   -0.290000	   -0.100000	    0.240000	   24.222656
    4.3253	  0.005500	  0.026000	  1.008000	   -0.300000	   -0.060000	    0.210000	   24.199219
    4.3354	  0.005500	  0.028000	  1.007000	   -0.250000	   -0.060000	    0.190000	   24.195313
    4.3454	  0.005500	  0.026500	  1.006500	   -0.360000	   -0.150000	    0.290000	   24.214844
    4.3554	  0.006000	  0.027000	  1.008500	   -0.400000	   -0.230000	    0.340000	   24.210938
    4.3654	  0.006000	  0.026000	  1.008000	   -0.490000	   -0.240000	    0.370000	   24.207031
    4.3754	  0.005500	  0.027000	  1.007500	   -0.340000	   -0.100000	    0.230000	   24.222656
    4.3854	  0.006000	  0.027000	  1.008000	   -0.350000	   -0.170000	    0.170000	   24.230469
    4.3954	  0.006500	  0.027000	  1.007500	   -0.570000	   -0.100000	    0.360000	   24.199219
    4.4054	  0.006500	  0.027000	  1.008500	   -0.370000	   -0.190000	    0.230000	   24.214844
    4.4154	  0.006000	  0.026000	  1.009000	   -0.290000	   -0.230000	    0.180000	   24.226563
    4.4254	  0.004500	  0.027000	  1.007500	   -0.420000	   -0.170000	    0.280000	   24.222656
    4.4354	  0.005500	  0.026000	  1.007500	   -0.340000	   -0.180000	    0.200000	   24.234375
    4.4454	  0.005500	  0.026500	  1.008000	   -0.180000	   -0.010000	    0.120000	   24.238281
    4.4554	  0.006000	  0.026000	  1.007500	   -0.350000	   -0.040000	    0.220000	   24.238281
    4.4654	  0.005500	  0.025000	  1.008500	   -0.380000	   -0.220000	    0.280000	   24.234375
    4.4754	  0.005000	  0.026000	  1.010000	   -0.350000	   -0.130000	    0.200000	   24.234375
    4.4854	  0.005000	  0.026500	  1.006500	   -0.370000	   -0.100000	    0.240000	   24.222656
    4.4954	  0.006500	  0.026000	  1.008000	   -0.430000	   -0.170000	    0.320000	   24.230469
    4.5054	  0.005000	  0.026500	  1.009000	   -0.250000	   -0.200000	    0.290000	   24.230469
    4.5154	  0.006500	  0.027000	  1.007000	   -0.330000	   -0.190000	    0.160000	   24.222656
    4.5254	  0.005500	  0.027000	  1.006000	   -0.390000	    0.020000	    0.260000	   24.214844
    4.5354	  0.005500	  0.027000	  1.008000	   -0.400000	   -0.020000	    0.230000	   24.218750
    4.5454	  0.006000	  0.027000	  1.007000	   -0.380000	   -0.090000	    0.240000	   24.226563
    4.5554	  0.005500	  0.027500	  1.008500	   -0.340000	   -0.210000	    0.200000	   24.242188
    4.5654	  0.005500	  0.026500	  1.008000	   -0.350000	   -0.060000	    0.260000	   24.242188
    4.5754	  0.006000	  0.026500	  1.006500	   -0.370000	   -0.060000	    0.200000	   24.234375
    4.5854	  0.006000	  0.027500	  1.009000	   -0.180000	   -0.260000	    0.160000	   24.238281
    4.5954	  0.006000	  0.025500	  1.009500	   -0.370000	   -0.240000	    0.270000	   24.230469
    4.6054	  0.006000	  0.026500	  1.006000	   -0.330000	   -0.230000	    0.340000	   24.230469
    4.6154	  0.006500	  0.025000	  1.008500	   -0.400000	   -0.180000	    0.270000	   24.222656
    4.6254	  0.006000	  0.026000	  1.009000	   -0.420000	   -0.110000	    0.310000	   24.238281
    4.6354	  0.006000	  0.027000	  1.005000	   -0.390000	   -0.150000	    0.240000	   24.246094
    4.6454	  0.006000	  0.027000	  1.009000	   -0.400000	   -0.220000	    0.330000	   24.246094
    4.6554	  0.006500	  0.027000	  1.010000	   -0.280000	   -0.180000	    0.260000	   24.234375
    4.6654	  0.005500	  0.027000	  1.006000	   -0.300000	   -0.070000	    0.310000	   24.210938
    4.6754	  0.006500	  0.026500	  1.007500	   -0.380000	   -0.120000	    0.240000	   24.222656
    4.6854	  0.005500	  0.026500	  1.009500	   -0.380000	   -0.150000	    0.190000	   24.222656
    4.6954	  0.005500	  0.027500	  1.005500	   -0.340000	   -0.100000	    0.210000	   24.234375
    4.7054	  0.006000	  0.026000	  1.008500	   -0.320000	   -0.150000	    0.290000	   24.218750
    4.7154	  0.006000	  0.027000	  1.009500	   -0.470000	   -0.070000	    0.200000	   24.226563
    4.7254	  0.005500	  0.027500	  1.004500	   -0.360000	   -0.120000	    0.300000	   24.238281
    4.7354	  0.006500	  0.026500	  1.008500	   -0.340000	   -0.120000	    0.350000	   24.222656
    4.7454	  0.006000	  0.027000	  1.008000	   -0.440000	   -0.230000	    0.290000	   24.207031
    4.7554	  0.006000	  0.026500	  1.007500	   -0.430000	   -0.290000	    0.290000	   24.222656
    4.7654	  0.005500	  0.026000	  1.007500	   -0.430000	   -0.030000	    0.250000	   24.250000
    4.7754	  0.006000	  0.027500	  1.009500	   -0.390000	   -0.090000	    0.340000	   24.207031
    4.7854	  0.006500	  0.027000	  1.006000	   -0.490000	   -0.070000	    0.220000	   24.210938
    4.7954	  0.006500	  0.025500	  1.009000	   -0.400000	   -0.120000	    0.220000	   24.214844
    4.8054	  0.007000	  0.027500	  1.009500	   -0.390000	   -0.260000	    0.260000	   24.222656
    4.8154	  0.006500	  0.026500	  1.005000	   -0.380000	   -0.130000	    0.260000	   24.222656
    4.8254	  0.005500	  0.026500	  1.009000	   -0.390000	   -0.130000	    0.180000	   24.222656
    4.8354	  0.006000	  0.026000	  1.009000	   -0.270000	   -0.100000	    0.290000	   24.238281
    4.8454	  0.006000	  0.027000	  1.007000	   -0.400000	   -0.180000	    0.200000	   24.222656
    4.8554	  0.006000	  0.027000	  1.008000	   -0.350000	   -0.160000	    0.280000	   24.238281
    4.8654	  0.006500	  0.026500	  1.008000	   -0.300000	   -0.070000	    0.330000	   24.226563
    4.8754	  0.005500	  0.027500	  1.005500	   -0.480000	   -0.170000	    0.280000	   24.218750
    4.8854	  0.005000	  0.026000	  1.007500	   -0.330000	    0.030000	    0.170000	   24.226563
    4.8954	  0.005000	  0.026000	  1.008500	   -0.440000	   -0.200000	    0.180000	   24.222656
    4.9054	  0.005000	  0.027500	  1.007000	   -0.410000	   -0.210000	    0.310000	   24.222656
    4.9154	  0.007000	  0.026000	  1.009500	   -0.380000	   -0.190000	    0.250000	   24.246094
    4.9254	  0.006000	  0.026500	  1.008000	   -0.340000	   -0.130000	    0.250000	   24.222656
    4.9354	  0.006000	  0.027500	  1.006500	   -0.360000	   -0.130000	    0.220000	   24.214844
    4.9454	  0.006000	  0.028000	  1.008000	   -0.470000	   -0.100000	    0.260000	   24.222656
    4.9554	  0.007000	  0.027500	  1.008000	   -0.300000	   -0.230000	    0.230000	   24.238281
    4.9654	  0.005500	  0.026500	  1.007000	   -0.460000	   -0.250000	    0.140000	   24.222656
    4.9754	  0.007000	  0.025500	  1.008500	   -0.460000	   -0.160000	    0.320000	   24.226563
    4.9854	  0.006000	  0.027000	  1.008000	   -0.390000	   -0.240000	    0.210000	   24.238281
    4.9954	  0.006000	  0.026500	  1.007000	   -0.300000	   -0.170000	    0.180000	   24.230469
    5.0054	  0.006500	  0.026500	  1.009500	   -0.280000	   -0.080000	    0.300000	   24.250000
    5.0154	  0.006000	  0.026000	  1.008000	   -0.490000	   -0.140000	    0.250000	   24.230469
    5.0254	  0.006000	  0.027500	  1.007000	   -0.310000	   -0.030000	    0.200000	   24.207031
    5.0354	  0.005500	  0.026000	  1.010000	   -0.400000	   -0.070000	    0.250000	   24.238281
    5.0454	  0.005500	  0.027500	  1.009000	   -0.290000	   -0.050000	    0.230000	   24.242188
    5.0554	  0.006000	  0.028000	  1.005500	   -0.300000	   -0.190000	    0.370000	   24.253906
    5.0654	  0.007500	  0.026000	  1.009500	   -0.470000	    0.100000	    0.230000	   24.238281
    5.0754	  0.005500	  0.027000	  1.008500	   -0.330000	   -0.060000	    0.230000	   24.222656
    5.0854	  0.005500	  0.027500	  1.004000	   -0.360000	   -0.120000	    0.150000	   24.222656
    5.0954	  0.006000	  0.026500	  1.009500	   -0.440000	   -0.180000	    0.190000	   24.234375
    5.1058	  0.006000	  0.026000	  1.008000	   -0.280000	   -0.130000	    0.290000	   24.238281
    5.1154	  0.006500	  0.027500	  1.006000	   -0.390000	   -0.180000	    0.350000	   24.230469
    5.1254	  0.006000	  0.026000	  1.008500	   -0.350000	   -0.140000	    0.150000	   24.261719
    5.1354	  0.006500	  0.027000	  1.008000	   -0.450000	   -0.270000	    0.240000	   24.242188
    5.1454	  0.005000	  0.027000	  1.004500	   -0.360000	   -0.130000	    0.180000	   24.222656
    5.1554	  0.004500	  0.027000	  1.008500	   -0.390000	   -0.050000	    0.210000	   24.218750
    5.1654	  0.007000	  0.025500	  1.008500	   -0.390000	   -0.170000	    0.160000	   24.238281
    5.1754	  0.006000	  0.026500	  1.006500	   -0.420000	   -0.180000	    0.230000	   24.238281
    5.1854	  0.005000	  0.027000	  1.009000	   -0.350000	   -0.080000	    0.210000	   24.250000
    5.1954	  0.006500	  0.026500	  1.008500	   -0.380000	   -0.210000	    0.370000	   24.250000
    5.2054	  0.006000	  0.026500	  1.007000	   -0.240000	   -0.120000	    0.280000	   24.238281
    5.2154	  0.006000	  0.027000	  1.007500	   -0.450000	   -0.180000	    0.290000	   24.250000
    5.2254	  0.004500	  0.025500	  1.007500	   -0.380000	    0.010000	    0.110000	   24.246094
    5.2354	  0.006000	  0.025500	  1.005500	   -0.480000	   -0.130000	    0.290000	   24.253906
    5.2454	  0.004500	  0.025500	  1.008500	   -0.240000	   -0.110000	    0.290000	   24.246094
    5.2554	  0.004000	  0.026500	  1.008000	   -0.360000	   -0.100000	    0.230000	   24.226563
    5.2654	  0.005500	  0.027000	  1.006000	   -0.250000	   -0.110000	    0.180000	   24.238281
    5.2754	  0.006000	  0.026000	  1.008000	   -0.400000	   -0.050000	    0.260000	   24.218750
    5.2854	  0.004500	  0.026500	  1.008000	   -0.460000	   -0.130000	    0.350000	   24.218750
    5.2954	  0.004500	  0.027000	  1.005500	   -0.220000	   -0.160000	    0.120000	   24.242188
    5.3054	  0.007000	  0.027000	  1.009000	   -0.460000	   -0.080000	    0.260000	   24.234375
    5.3154	  0.005000	  0.026500	  1.007500	   -0.370000	   -0.060000	    0.220000	   24.242188
    5.3254	  0.004500	  0.027500	  1.006500	   -0.400000	   -0.260000	    0.260000	   24.203125
    5.3354	  0.006500	  0.026500	  1.008000	   -0.380000	   -0.080000	    0.170000	   24.210938
    5.3454	  0.007000	  0.027500	  1.008000	   -0.440000	   -0.160000	    0.200000	   24.226563
    5.3554	  0.004500	  0.028000	  1.005500	   -0.430000	   -0.180000	    0.240000	   24.253906
    5.3654	  0.006000	  0.026500	  1.006500	   -0.240000	   -0.250000	    0.200000	   24.242188
    5.3754	  0.006000	  0.027500	  1.010000	   -0.420000	   -0.150000	    0.240000	   24.242188
    5.3854	  0.004500	  0.027500	  1.006000	   -0.270000	   -0.090000	    0.270000	   24.242188
    5.3954	  0.004000	  0.027000	  1.008000	   -0.380000	   -0.040000	    0.210000	   24.222656
    5.4054	  0.006500	  0.025500	  1.009000	   -0.390000	   -0.160000	    0.300000	   24.214844
    5.4154	  0.005500	  0.027500	  1.008000	   -0.420000	   -0.170000	    0.350000	   24.226563
    5.4254	  0.005000	  0.026500	  1.007000	   -0.210000	   -0.070000	    0.240000	   24.250000
    5.4354	  0.007500	  0.025500	  1.009000	   -0.390000	   -0.100000	    0.260000	   24.238281
    5.4455	  0.006500	  0.027500	  1.007000	   -0.380000	   -0.290000	    0.340000	   24.226563
    5.4554	  0.004500	  0.025500	  1.007000	   -0.330000	   -0.140000	    0.200000	   24.246094
    5.4654	  0.005500	  0.027000	  1.010500	   -0.250000	   -0.080000	    0.270000	   24.257813
    5.4754	  0.007000	  0.026000	  1.008500	   -0.320000	   -0.200000	    0.280000	   24.246094
    5.4854	  0.005500	  0.025500	  1.008000	   -0.440000	   -0.080000	    0.340000	   24.242188
    5.4954	  0.005000	  0.026500	  1.007500	   -0.450000	   -0.170000	    0.350000	   24.242188
    5.5054	  0.006500	  0.026500	  1.009000	   -0.420000	   -0.170000	    0.330000	   24.226563
    5.5154	  0.006000	  0.027000	  1.007000	   -0.370000	   -0.180000	    0.220000	   24.230469
    5.5254	  0.005500	  0.026500	  1.009000	   -0.400000	   -0.040000	    0.260000	   24.218750
    5.5354	  0.006000	  0.027500	  1.008000	   -0.380000	   -0.090000	    0.070000	   24.226563
    5.5455	  0.006500	  0.025500	  1.006500	   -0.400000	   -0.090000	    0.300000	   24.234375
    5.5554	  0.005000	  0.026000	  1.008500	   -0.360000	   -0.190000	    0.300000	   24.230469
    5.5654	  0.005500	  0.025000	  1.006500	   -0.270000	   -0.180000	    0.150000	   24.207031
    5.5754	  0.007000	  0.026500	  1.007000	   -0.330000	   -0.170000	    0.310000	   24.238281
    5.5854	  0.004500	  0.026500	  1.009500	   -0.360000	   -0.280000	    0.240000	   24.269531
    5.5954	  0.005500	  0.026500	  1.006500	   -0.420000	   -0.110000	    0.260000	   24.261719
    5.6054	  0.006000	  0.026000	  1.006000	   -0.430000	   -0.200000	    0.280000	   24.250000
    5.6154	  0.005000	  0.026500	  1.006500	   -0.310000	   -0.090000	    0.250000	   24.261719
    5.6254	  0.005500	  0.027000	  1.006000	   -0.330000	   -0.070000	    0.280000	   24.253906
    5.6354	  0.006500	  0.026000	  1.006500	   -0.390000	   -0.060000	    0.220000	   24.250000
    5.6455	  0.008000	  0.027500	  1.009000	   -0.280000	   -0.150000	    0.240000	   24.242188
    5.6554	  0.006000	  0.027000	  1.006000	   -0.350000	   -0.120000	    0.210000	   24.238281
    5.6654	  0.004500	  0.028000	  1.009000	   -0.400000	   -0.090000	    0.210000	   24.226563
    5.6754	  0.007500	  0.024000	  1.008000	   -0.360000	   -0.130000	    0.220000	   24.226563
    5.6854	  0.005500	  0.027000	  1.009000	   -0.410000	   -0.070000	    0.250000	   24.253906
    5.6954	  0.004000	  0.026500	  1.006500	   -0.390000	   -0.150000	    0.240000	   24.234375
    5.7054	  0.006500	  0.025500	  1.008000	   -0.420000	   -0.180000	    0.210000	   24.226563
    5.7154	  0.009500	  0.025500	  1.009000	   -0.320000	   -0.160000	    0.240000	   24.230469
    5.7254	  0.005000	  0.028000	  1.007500	   -0.370000	   -0.070000	    0.310000	   24.238281
    5.7354	  0.003000	  0.027000	  1.007000	   -0.400000	   -0.130000	    0.250000	   24.250000
    5.7455	  0.008500	  0.026000	  1.009000	   -0.310000	   -0.150000	    0.300000	   24.261719
    5.7554	  0.007500	  0.025500	  1.008000	   -0.350000	   -0.140000	    0.350000	   24.265625
    5.7654	  0.002000	  0.028000	  1.007500	   -0.340000	   -0.110000	    0.350000	   24.253906
    5.7754	  0.008000	  0.027000	  1.006500	   -0.370000	   -0.190000	    0.200000	   24.242188
    5.7854	  0.009500	  0.027000	  1.011000	   -0.380000	   -0.150000	    0.250000	   24.273438
    5.7954	  0.002500	  0.028500	  1.007000	   -0.320000	   -0.010000	    0.190000	   24.250000
    5.8054	  0.004000	  0.027000	  1.006500	   -0.280000	   -0.130000	    0.110000	   24.222656
    5.8154	  0.008500	  0.025000	  1.010000	   -0.290000	    0.000000	    0.200000	   24.226563
    5.8254	  0.005000	  0.028000	  1.007500	   -0.360000	   -0.210000	    0.280000	   24.246094
    5.8354	  0.003000	  0.027000	  1.004000	   -0.350000	   -0.170000	    0.190000	   24.257813
    5.8455	  0.007500	  0.026000	  1.012000	   -0.310000	   -0.140000	    0.180000	   24.250000
    5.8554	  0.009500	  0.026500	  1.006500	   -0.500000	   -0.030000	    0.180000	   24.250000
    5.8654	  0.003500	  0.026000	  1.006500	   -0.480000	   -0.170000	    0.230000	   24.261719
    5.8754	  0.005500	  0.025500	  1.007500	   -0.430000	   -0.120000	    0.230000	   24.257813
    5.8854	  0.009000	  0.025000	  1.008500	   -0.480000	    0.030000	    0.190000	   24.269531
    5.8954	  0.005000	  0.027500	  1.007000	   -0.320000	   -0.080000	    0.270000	   24.253906
    5.9054	  0.004000	  0.027500	  1.008000	   -0.390000	   -0.070000	    0.190000	   24.246094
    5.9154	  0.007500	  0.027500	  1.009500	   -0.470000	   -0.200000	    0.350000	   24.253906
    5.9254	  0.005500	  0.026500	  1.006500	   -0.410000	   -0.160000	    0.410000	   24.269531
    5.9354	  0.004000	  0.028000	  1.006500	   -0.380000	   -0.200000	    0.310000	   24.277344
    5.9455	  0.008500	  0.026500	  1.008500	   -0.340000	   -0.150000	    0.160000	   24.234375
    5.9554	  0.009500	  0.027000	  1.006500	   -0.380000	   -0.240000	    0.290000	   24.246094
    5.9654	  0.003500	  0.027500	  1.007000	   -0.400000	   -0.230000	    0.180000	   24.246094
    5.9754	  0.005000	  0.028500	  1.008500	   -0.490000	   -0.130000	    0.210000	   24.253906
    5.9854	  0.010500	  0.025000	  1.007500	   -0.380000	   -0.120000	    0.240000	   24.257813
    5.9954	  0.005500	  0.026500	  1.008000	   -0.350000	   -0.200000	    0.330000	   24.250000
    6.0054	  0.003500	  0.026000	  1.008000	   -0.370000	   -0.020000	    0.270000	   24.238281
    6.0155	  0.009000	  0.027500	  1.008000	   -0.360000	   -0.140000	    0.240000	   24.214844
    6.0254	  0.006000	  0.026000	  1.008000	   -0.290000	   -0.130000	    0.180000	   24.257813
    6.0354	  0.003000	  0.026000	  1.006500	   -0.380000	   -0.090000	    0.200000	   24.269531
    6.0454	  0.006000	  0.026000	  1.005500	   -0.440000	   -0.040000	    0.220000	   24.269531
    6.0554	  0.007500	  0.027000	  1.011000	   -0.280000	   -0.150000	    0.320000	   24.261719
    6.0655	  0.005000	  0.027000	  1.007500	   -0.410000	   -0.290000	    0.260000	   24.242188
    6.0754	  0.004500	  0.027000	  1.007000	   -0.460000	   -0.260000	    0.240000	   24.230469
    6.0854	  0.008000	  0.026500	  1.008000	   -0.440000	   -0.180000	    0.170000	   24.250000
    6.0958	  0.006000	  0.027000	  1.008000	   -0.400000	   -0.110000	    0.220000	   24.269531
    6.1055	  0.004000	  0.027000	  1.007000	   -0.390000	   -0.200000	    0.200000	   24.242188
    6.1155	  0.006500	  0.026500	  1.008500	   -0.450000	   -0.240000	    0.280000	   24.242188
    6.1255	  0.006000	  0.027000	  1.008000	   -0.380000	   -0.160000	    0.270000	   24.242188
    6.1355	  0.003000	  0.027500	  1.006500	   -0.310000	   -0.090000	    0.210000	   24.207031
    6.1455	  0.004500	  0.026000	  1.008500	   -0.380000	   -0.170000	    0.140000	   24.238281
    6.1555	  0.006500	  0.025500	  1.007500	   -0.490000	   -0.220000	    0.290000	   24.261719
    6.1655	  0.004500	  0.026500	  1.006000	   -0.350000	   -0.020000	    0.180000	   24.281250
    6.1755	  0.005000	  0.026500	  1.007000	   -0.370000	   -0.130000	    0.230000	   24.250000
    6.1855	  0.008500	  0.028000	  1.009000	   -0.420000	   -0.120000	    0.300000	   24.226563
    6.1955	  0.005500	  0.027000	  1.006000	   -0.440000	   -0.050000	    0.170000	   24.234375
    6.2055	  0.005000	  0.026000	  1.009000	   -0.360000	   -0.050000	    0.150000	   24.253906
    6.2155	  0.007500	  0.027000	  1.009000	   -0.370000	   -0.120000	    0.180000	   24.230469
    6.2255	  0.006000	  0.025500	  1.007000	   -0.490000	   -0.110000	    0.190000	   24.246094
    6.2355	  0.005500	  0.027000	  1.006500	   -0.270000	   -0.270000	    0.310000	   24.269531
    6.2455	  0.006000	  0.026500	  1.008500	   -0.390000	   -0.120000	    0.280000	   24.257813
    6.2555	  0.005000	  0.026000	  1.007500	   -0.390000	   -0.230000	    0.330000	   24.261719
    6.2655	  0.004500	  0.027000	  1.007500	   -0.260000	   -0.180000	    0.270000	   24.253906
    6.2755	  0.005500	  0.025500	  1.007500	   -0.360000	   -0.060000	    0.250000	   24.230469
    6.2855	  0.005500	  0.026500	  1.007500	   -0.410000	   -0.140000	    0.320000	   24.242188
    6.2955	  0.005500	  0.026000	  1.008000	   -0.260000	   -0.050000	    0.250000	   24.253906
    6.3055	  0.004500	  0.026500	  1.007500	   -0.400000	   -0.170000	    0.290000	   24.242188
    6.3155	  0.005000	  0.026000	  1.008000	   -0.400000	   -0.220000	    0.240000	   24.246094
    6.3255	  0.005000	  0.026500	  1.008000	   -0.310000	   -0.030000	    0.240000	   24.253906
    6.3355	  0.005500	  0.027500	  1.006500	   -0.380000	   -0.190000	    0.220000	   24.253906
    6.3455	  0.007000	  0.025500	  1.009000	   -0.300000	   -0.080000	    0.290000	   24.250000
    6.3555	  0.005500	  0.027000	  1.007500	   -0.480000	   -0.260000	    0.220000	   24.242188
    6.3655	  0.004500	  0.028000	  1.007500	   -0.380000	   -0.140000	    0.290000	   24.257813
    6.3755	  0.006000	  0.027500	  1.007500	   -0.430000	   -0.060000	    0.310000	   24.269531
    6.3855	  0.005000	  0.027500	  1.008000	   -0.430000	   -0.360000	    0.280000	   24.234375
    6.3955	  0.004500	  0.027500	  1.007000	   -0.390000	   -0.080000	    0.300000	   24.253906
    6.4055	  0.005500	  0.026000	  1.008500	   -0.470000	   -0.140000	    0.200000	   24.257813
    6.4155	  0.005500	  0.026500	  1.009000	   -0.390000	    0.040000	    0.220000	   24.261719
    6.4255	  0.005500	  0.026500	  1.007500	   -0.280000	   -0.160000	    0.190000	   24.265625
    6.4355	  0.005000	  0.026000	  1.007000	   -0.470000	   -0.220000	    0.370000	   24.257813
    6.4455	  0.004500	  0.027000	  1.009000	   -0.490000	   -0.070000	    0.210000	   24.246094
    6.4555	  0.006000	  0.026500	  1.008000	   -0.320000	   -0.210000	    0.240000	   24.238281
    6.4655	  0.005500	  0.027000	  1.006000	   -0.470000	   -0.190000	    0.310000	   24.246094
    6.4755	  0.007500	  0.026500	  1.008000	   -0.380000	   -0.260000	    0.270000	   24.253906
    6.4855	  0.006000	  0.026500	  1.008000	   -0.420000	    0.090000	    0.230000	   24.246094
    6.4955	  0.005500	  0.028000	  1.006500	   -0.540000	   -0.330000	    0.320000	   24.250000
    6.5055	  0.006000	  0.028000	  1.007000	   -0.340000	   -0.170000	    0.170000	   24.238281
    6.5155	  0.006500	  0.027000	  1.008500	   -0.410000	   -0.220000	    0.120000	   24.261719
    6.5255	  0.005500	  0.026000	  1.006500	   -0.400000	   -0.160000	    0.120000	   24.257813
    6.5355	  0.005500	  0.026500	  1.008000	   -0.420000	   -0.180000	    0.310000	   24.257813
    6.5455	  0.006500	  0.025500	  1.007500	   -0.410000	   -0.100000	    0.190000	   24.242188
    6.5555	  0.005000	  0.026000	  1.008000	   -0.390000	   -0.210000	    0.280000	   24.222656
    6.5655	  0.004500	  0.025500	  1.007500	   -0.460000	   -0.260000	    0.270000	   24.238281
    6.5755	  0.006000	  0.025500	  1.006500	   -0.440000	   -0.180000	    0.240000	   24.250000
    6.5855	  0.004500	  0.023500	  1.008500	   -0.450000	   -0.060000	    0.150000	   24.246094
    6.5955	  0.005000	  0.026500	  1.007000	   -0.370000	   -0.120000	    0.330000	   24.222656
    6.6055	  0.007000	  0.025500	  1.008500	   -0.420000	   -0.160000	    0.190000	   24.253906
    6.6155	  0.008000	  0.026000	  1.007500	   -0.460000	   -0.130000	    0.320000	   24.238281
    6.6255	  0.006000	  0.027000	  1.007000	   -0.460000	   -0.180000	    0.340000	   24.242188
    6.6355	  0.007000	  0.028000	  1.007500	   -0.450000	   -0.180000	    0.160000	   24.246094
    6.6455	  0.008000	  0.026500	  1.007000	   -0.290000	   -0.160000	    0.200000	   24.226563
    6.6555	  0.006500	  0.027000	  1.006500	   -0.290000	   -0.180000	    0.280000	   24.246094
    6.6655	  0.006000	  0.026500	  1.007500	   -0.350000	   -0.110000	    0.210000	   24.238281
    6.6755	  0.007500	  0.027000	  1.006000	   -0.430000	   -0.050000	    0.230000	   24.265625
    6.6855	  0.006000	  0.027000	  1.008000	   -0.430000	   -0.150000	    0.180000	   24.296875
    6.6955	  0.005500	  0.027000	  1.007000	   -0.270000	    0.060000	    0.330000	   24.261719
    6.7055	  0.005500	  0.027000	  1.007000	   -0.460000	   -0.170000	    0.210000	   24.234375
    6.7155	  0.005500	  0.026000	  1.008500	   -0.360000	   -0.150000	    0.130000	   24.246094
    6.7255	  0.006000	  0.027000	  1.007000	   -0.360000	   -0.070000	    0.210000	   24.234375
    6.7355	  0.005000	  0.026500	  1.007000	   -0.520000	   -0.250000	    0.300000	   24.265625
    6.7455	  0.006000	  0.027000	  1.009000	   -0.330000	   -0.210000	    0.190000	   24.269531
    6.7555	  0.004500	  0.026500	  1.007500	   -0.320000	   -0.060000	    0.380000	   24.292969
    6.7655	  0.006000	  0.026000	  1.008500	   -0.230000	   -0.160000	    0.330000	   24.257813
    6.7755	  0.006000	  0.027000	  1.008000	   -0.360000	   -0.120000	    0.100000	   24.265625
    6.7855	  0.006000	  0.027000	  1.006500	   -0.340000	   -0.220000	    0.270000	   24.261719
    6.7955	  0.005000	  0.027500	  1.007500	   -0.300000	    0.050000	    0.220000	   24.250000
    6.8055	  0.006000	  0.027500	  1.009000	   -0.360000	    0.000000	    0.240000	   24.261719
    6.8155	  0.006000	  0.026500	  1.007500	   -0.410000	   -0.190000	    0.280000	   24.238281
    6.8255	  0.005500	  0.027500	  1.008500	   -0.440000	   -0.120000	    0.290000	   24.269531
    6.8355	  0.006500	  0.026500	  1.007500	   -0.310000	   -0.100000	    0.290000	   24.265625
    6.8455	  0.007000	  0.025000	  1.008000	   -0.360000	   -0.070000	    0.290000	   24.253906
    6.8555	  0.006000	  0.026000	  1.007500	   -0.370000	   -0.170000	    0.240000	   24.214844
    6.8655	  0.005500	  0.027000	  1.006000	   -0.270000	   -0.100000	    0.300000	   24.238281
    6.8755	  0.005000	  0.025500	  1.007500	   -0.410000	   -0.260000	    0.310000	   24.269531
    6.8855	  0.004500	  0.027000	  1.008000	   -0.260000	   -0.220000	    0.280000	   24.253906
    6.8955	  0.005000	  0.027000	  1.008000	   -0.440000	   -0.230000	    0.280000	   24.265625
    6.9055	  0.005000	  0.026000	  1.007000	   -0.420000	   -0.220000	    0.250000	   24.273438
    6.9155	  0.004000	  0.027000	  1.008500	   -0.350000	   -0.130000	    0.190000	   24.277344
    6.9255	  0.005000	  0.026500	  1.006500	   -0.420000	   -0.300000	    0.280000	   24.269531
    6.9355	  0.005000	  0.027000	  1.007500	   -0.420000	   -0.030000	    0.190000	   24.273438
    6.9455	  0.006000	  0.027000	  1.007500	   -0.350000	   -0.230000	    0.140000	   24.277344
    6.9555	  0.006500	  0.026500	  1.008000	   -0.420000	   -0.020000	    0.220000	   24.273438
    6.9655	  0.005000	  0.027000	  1.006500	   -0.380000	   -0.080000	    0.170000	   24.277344
    6.9755	  0.005000	  0.026500	  1.007000	   -0.310000	   -0.200000	    0.250000	   24.273438
    6.9855	  0.004500	  0.026500	  1.007500	   -0.220000	   -0.190000	    0.190000	   24.269531
    6.9955	  0.004000	  0.026000	  1.006500	   -0.340000	   -0.160000	    0.160000	   24.269531
    7.0055	  0.005000	  0.025500	  1.007500	   -0.430000	   -0.210000	    0.260000	   24.273438
    7.0155	  0.007000	  0.026000	  1.007000	   -0.460000	   -0.050000	    0.150000	   24.273438
    7.0255	  0.006000	  0.027000	  1.008500	   -0.340000	   -0.190000	    0.220000	   24.265625
    7.0355	  0.005500	  0.026000	  1.007500	   -0.400000	   -0.110000	    0.330000	   24.269531
    7.0455	  0.008500	  0.027000	  1.007000	   -0.310000	   -0.130000	    0.220000	   24.269531
    7.0555	  0.007500	  0.027000	  1.008500	   -0.290000	   -0.170000	    0.270000	   24.277344
    7.0655	  0.006500	  0.027500	  1.009000	   -0.440000	   -0.120000	    0.210000	   24.277344
    7.0755	  0.006000	  0.026000	  1.006500	   -0.310000	   -0.050000	    0.280000	   24.253906
    7.0855	  0.007500	  0.027000	  1.009000	   -0.400000	   -0.090000	    0.230000	   24.253906
    7.0959	  0.007500	  0.026000	  1.008500	   -0.390000	   -0.050000	    0.130000	   24.238281
    7.1055	  0.005000	  0.027000	  1.007500	   -0.390000	   -0.230000	    0.270000	   24.253906
    7.1155	  0.004500	  0.026500	  1.008500	   -0.340000	   -0.140000	    0.310000	   24.246094
    7.1255	  0.006500	  0.026500	  1.007000	   -0.270000	   -0.130000	    0.240000	   24.253906
    7.1355	  0.005000	  0.027000	  1.008000	   -0.420000	   -0.140000	    0.240000	   24.257813
    7.1456	  0.006000	  0.026500	  1.006500	   -0.300000	    0.020000	    0.240000	   24.253906
    7.1555	  0.007000	  0.027000	  1.007500	   -0.400000	   -0.230000	    0.250000	   24.269531
    7.1655	  0.005500	  0.026500	  1.007000	   -0.360000	   -0.150000	    0.280000	   24.273438
    7.1755	  0.005500	  0.027500	  1.007000	   -0.340000	   -0.010000	    0.220000	   24.253906
    7.1855	  0.005500	  0.027000	  1.007000	   -0.360000	   -0.040000	    0.200000	   24.234375
    7.1955	  0.006500	  0.026500	  1.008500	   -0.430000	   -0.140000	    0.310000	   24.269531
    7.2055	  0.005000	  0.027500	  1.007000	   -0.390000	   -0.060000	    0.260000	   24.265625
    7.2155	  0.005000	  0.027000	  1.008000	   -0.440000	   -0.190000	    0.160000	   24.250000
    7.2255	  0.007000	  0.026500	  1.009000	   -0.430000	   -0.180000	    0.230000	   24.265625
    7.2355	  0.006500	  0.027000	  1.007000	   -0.430000	   -0.040000	    0.260000	   24.253906
    7.2456	  0.005500	  0.025000	  1.008000	   -0.330000	   -0.070000	    0.210000	   24.226563
    7.2555	  0.006500	  0.026000	  1.008500	   -0.270000	   -0.240000	    0.260000	   24.242188
    7.2655	  0.006000	  0.026500	  1.008500	   -0.380000	   -0.060000	    0.260000	   24.238281
    7.2755	  0.005500	  0.026500	  1.007500	   -0.310000	   -0.180000	    0.260000	   24.226563
    7.2855	  0.005000	  0.026500	  1.009000	   -0.330000	   -0.210000	    0.290000	   24.246094
    7.2955	  0.004500	  0.026500	  1.008500	   -0.330000	   -0.200000	    0.260000	   24.265625
    7.3055	  0.004500	  0.026500	  1.008000	   -0.400000	   -0.170000	    0.260000	   24.269531
    7.3155	  0.006500	  0.026000	  1.007500	   -0.430000	   -0.250000	    0.300000	   24.277344
    7.3255	  0.006000	  0.027000	  1.008000	   -0.310000	   -0.120000	    0.190000	   24.257813
    7.3355	  0.005000	  0.026000	  1.006000	   -0.510000	   -0.080000	    0.250000	   24.218750
    7.3456	  0.005500	  0.027500	  1.007500	   -0.310000	   -0.100000	    0.180000	   24.269531
    7.3555	  0.005500	  0.025500	  1.008000	   -0.290000	   -0.100000	    0.300000	   24.277344
    7.3655	  0.005000	  0.026000	  1.007500	   -0.420000	   -0.080000	    0.210000	   24.250000
    7.3755	  0.004500	  0.025500	  1.006000	   -0.600000	   -0.210000	    0.290000	   24.238281
    7.3855	  0.004500	  0.027000	  1.008500	   -0.300000	   -0.040000	    0.330000	   24.238281
    7.3955	  0.006500	  0.026500	  1.006500	   -0.310000	   -0.090000	    0.310000	   24.253906
    7.4055	  0.005000	  0.027000	  1.006500	   -0.420000	   -0.130000	    0.260000	   24.261719
    7.4155	  0.007000	  0.026500	  1.005500	   -0.430000	   -0.120000	    0.230000	   24.269531
    7.4255	  0.006000	  0.026500	  1.007500	   -0.410000	   -0.210000	    0.270000	   24.269531
    7.4355	  0.006000	  0.026500	  1.006000	   -0.370000	   -0.020000	    0.130000	   24.269531
    7.4456	  0.005000	  0.027000	  1.006500	   -0.320000	   -0.190000	    0.270000	   24.261719
    7.4555	  0.006000	  0.026500	  1.006500	   -0.330000	   -0.170000	    0.190000	   24.246094
    7.4655	  0.005500	  0.026500	  1.007500	   -0.340000	   -0.220000	    0.290000	   24.261719
    7.4755	  0.004500	  0.025500	  1.008000	   -0.420000	   -0.180000	    0.280000	   24.261719
    7.4855	  0.006000	  0.026500	  1.008000	   -0.450000	   -0.150000	    0.230000	   24.250000
    7.4955	  0.005000	  0.027000	  1.007500	   -0.340000	   -0.130000	    0.180000	   24.257813
    7.5055	  0.004500	  0.027500	  1.009000	   -0.320000	   -0.060000	    0.250000	   24.242188
    7.5155	  0.003500	  0.025500	  1.006500	   -0.310000	   -0.200000	    0.330000	   24.269531
    7.5255	  0.004500	  0.026500	  1.007000	   -0.420000	   -0.120000	    0.230000	   24.269531
    7.5355	  0.005000	  0.026500	  1.006500	   -0.440000	   -0.280000	    0.260000	   24.257813
    7.5456	  0.005500	  0.026500	  1.007000	   -0.460000	   -0.170000	    0.280000	   24.246094
    7.5555	  0.005500	  0.027000	  1.008500	   -0.340000	   -0.200000	    0.320000	   24.253906
    7.5655	  0.006000	  0.026000	  1.007000	   -0.410000	   -0.150000	    0.190000	   24.253906
    7.5755	  0.006000	  0.027500	  1.007500	   -0.420000	   -0.140000	    0.300000	   24.277344
    7.5855	  0.007000	  0.027500	  1.007500	   -0.340000	   -0.110000	    0.270000	   24.242188
    7.5955	  0.005000	  0.026500	  1.007000	   -0.310000	   -0.200000	    0.280000	   24.238281
    7.6055	  0.006500	  0.025000	  1.008000	   -0.380000	   -0.220000	    0.310000	   24.234375
    7.6155	  0.005000	  0.028000	  1.008000	   -0.370000	   -0.070000	    0.160000	   24.253906
    7.6255	  0.006000	  0.028500	  1.005000	   -0.430000	   -0.180000	    0.250000	   24.250000
    7.6355	  0.006500	  0.027000	  1.009500	   -0.310000	   -0.020000	    0.150000	   24.273438
    7.6456	  0.008500	  0.027000	  1.008500	   -0.520000	   -0.120000	    0.260000	   24.273438
    7.6555	  0.007000	  0.026000	  1.008000	   -0.420000	   -0.250000	    0.250000	   24.253906
    7.6655	  0.008000	  0.026500	  1.008000	   -0.430000	   -0.190000	    0.240000	   24.246094
    7.6755	  0.007000	  0.027000	  1.006000	   -0.230000	   -0.220000	    0.130000	   24.250000
    7.6855	  0.005000	  0.027500	  1.007500	   -0.280000	   -0.220000	    0.220000	   24.261719
    7.6955	  0.005000	  0.026500	  1.008000	   -0.280000	   -0.230000	    0.200000	   24.238281
    7.7056	  0.005000	  0.026500	  1.007500	   -0.360000	    0.000000	    0.250000	   24.242188
    7.7156	  0.005000	  0.024000	  1.009000	   -0.350000	   -0.120000	    0.210000	   24.281250
    7.7255	  0.007000	  0.026500	  1.008000	   -0.390000	    0.020000	    0.230000	   24.273438
    7.7355	  0.004500	  0.027500	  1.006000	   -0.370000	   -0.190000	    0.180000	   24.253906
    7.7456	  0.004000	  0.026000	  1.009500	   -0.470000	   -0.290000	    0.210000	   24.253906
    7.7555	  0.007000	  0.025500	  1.009000	   -0.310000	   -0.140000	    0.320000	   24.234375
    7.7655	  0.006500	  0.027500	  1.006500	   -0.390000	   -0.050000	    0.240000	   24.261719
    7.7755	  0.004000	  0.025000	  1.008500	   -0.370000	   -0.290000	    0.310000	   24.273438
    7.7855	  0.007000	  0.027500	  1.007000	   -0.500000	   -0.170000	    0.280000	   24.253906
    7.7955	  0.007000	  0.026000	  1.008000	   -0.410000	   -0.190000	    0.270000	   24.257813
    7.8055	  0.004000	  0.028500	  1.008000	   -0.460000	   -0.180000	    0.440000	   24.265625
    7.8156	  0.005000	  0.029500	  1.007500	   -0.350000	   -0.090000	    0.360000	   24.265625
    7.8256	  0.008000	  0.026000	  1.008500	   -0.440000	   -0.240000	    0.250000	   24.250000
    7.8355	  0.006000	  0.026000	  1.008500	   -0.330000	   -0.290000	    0.320000	   24.246094
    7.8456	  0.006000	  0.030000	  1.005500	   -0.430000	   -0.150000	    0.300000	   24.269531
    7.8556	  0.007000	  0.026500	  1.007000	   -0.390000	   -0.170000	    0.260000	   24.281250
    7.8656	  0.008500	  0.025500	  1.010000	   -0.410000	   -0.140000	    0.200000	   24.257813
    7.8755	  0.006000	  0.028000	  1.005500	   -0.300000	   -0.110000	    0.270000	   24.253906
    7.8856	  0.004000	  0.028000	  1.008500	   -0.230000	   -0.130000	    0.280000	   24.257813
    7.8956	  0.005500	  0.028000	  1.009000	   -0.390000	   -0.150000	    0.310000	   24.242188
    7.9056	  0.006500	  0.028000	  1.009000	   -0.370000	   -0.280000	    0.230000	   24.257813
    7.9156	  0.003500	  0.025500	  1.007000	   -0.380000	   -0.170000	    0.300000	   24.238281
    7.9256	  0.007000	  0.026500	  1.009500	   -0.510000	   -0.270000	    0.350000	   24.253906
    7.9356	  0.007500	  0.026500	  1.009000	   -0.370000	   -0.240000	    0.260000	   24.253906
    7.9456	  0.004000	  0.029500	  1.007000	   -0.380000	   -0.090000	    0.260000	   24.261719
    7.9556	  0.006500	  0.024500	  1.008000	   -0.340000	   -0.190000	    0.300000	   24.281250
    7.9656	  0.009500	  0.027000	  1.010000	   -0.430000	   -0.140000	    0.350000	   24.281250
    7.9756	  0.005000	  0.025500	  1.006500	   -0.370000	   -0.240000	    0.180000	   24.281250
    7.9856	  0.003000	  0.025500	  1.010000	   -0.460000	   -0.140000	    0.210000	   24.273438
    7.9956	  0.008000	  0.024500	  1.008000	   -0.340000	   -0.180000	    0.260000	   24.257813
    8.0056	  0.005500	  0.025000	  1.006500	   -0.500000	   -0.200000	    0.340000	   24.273438
    8.0156	  0.001500	  0.026000	  1.007000	   -0.390000	   -0.190000	    0.240000	   24.246094
    8.0256	  0.007000	  0.024500	  1.007500	   -0.390000	   -0.090000	    0.300000	   24.265625
    8.0356	  0.008500	  0.024500	  1.006500	   -0.380000	   -0.260000	    0.310000	   24.292969
    8.0456	  0.002500	  0.025000	  1.006000	   -0.380000	   -0.130000	    0.200000	   24.261719
    8.0556	  0.005500	  0.027000	  1.007000	   -0.390000	   -0.030000	    0.280000	   24.257813
    8.0656	  0.010000	  0.025500	  1.007000	   -0.360000	   -0.210000	    0.240000	   24.261719
    8.0756	  0.004500	  0.027500	  1.009000	   -0.330000	   -0.140000	    0.270000	   24.265625
    8.0856	  0.003500	  0.028000	  1.006500	   -0.310000	   -0.150000	    0.220000	   24.277344
    8.0959	  0.005000	  0.030000	  1.006000	   -0.440000	   -0.090000	    0.280000	   24.273438
    8.1056	  0.005000	  0.028500	  1.007500	   -0.380000	   -0.020000	    0.150000	   24.273438
    8.1156	  0.005000	  0.024500	  1.005000	   -0.430000	    0.000000	    0.300000	   24.253906
    8.1256	  0.005500	  0.029000	  1.007000	   -0.260000	   -0.130000	    0.230000	   24.269531
    8.1356	  0.005000	  0.028000	  1.005000	   -0.440000	   -0.230000	    0.240000	   24.277344
    8.1456	  0.005000	  0.029000	  1.009500	   -0.430000	   -0.230000	    0.340000	   24.281250
    8.1556	  0.006500	  0.026000	  1.006000	   -0.290000	   -0.130000	    0.230000	   24.277344
    8.1656	  0.004000	  0.029500	  1.008500	   -0.500000	   -0.240000	    0.360000	   24.253906
    8.1756	  0.005500	  0.026000	  1.008000	   -0.320000	   -0.190000	    0.170000	   24.265625
    8.1856	  0.008500	  0.027000	  1.007500	   -0.390000	   -0.190000	    0.280000	   24.269531
    8.1956	  0.005000	  0.026000	  1.008500	   -0.490000	   -0.170000	    0.320000	   24.277344
    8.2056	  0.005500	  0.026000	  1.009000	   -0.330000	   -0.110000	    0.220000	   24.285156
    8.2156	  0.006500	  0.027500	  1.010000	   -0.440000	   -0.100000	    0.320000	   24.246094
    8.2256	  0.005500	  0.026500	  1.010000	   -0.420000	   -0.200000	    0.200000	   24.234375
    8.2356	  0.005500	  0.027500	  1.008000	   -0.420000	    0.000000	    0.210000	   24.265625
    8.2456	  0.007500	  0.025500	  1.008000	   -0.460000	   -0.200000	    0.260000	   24.253906
    8.2556	  0.006500	  0.025500	  1.010500	   -0.330000	   -0.030000	    0.200000	   24.257813
    8.2656	  0.005500	  0.024500	  1.006500	   -0.410000	   -0.230000	    0.230000	   24.253906
    8.2756	  0.004000	  0.024500	  1.008500	   -0.260000	   -0.120000	    0.140000	   24.277344
    8.2856	  0.005000	  0.025000	  1.009000	   -0.330000	   -0.030000	    0.240000	   24.285156
    8.2956	  0.005500	  0.025000	  1.006500	   -0.410000	   -0.120000	    0.280000	   24.269531
    8.3056	  0.003000	  0.026500	  1.009500	   -0.360000	   -0.100000	    0.380000	   24.281250
    8.3156	  0.006000	  0.025500	  1.007500	   -0.530000	   -0.020000	    0.290000	   24.296875
    8.3256	  0.007000	  0.028000	  1.007500	   -0.470000	   -0.220000	    0.330000	   24.277344
    8.3356	  0.005000	  0.026500	  1.007000	   -0.350000	   -0.080000	    0.170000	   24.253906
    8.3456	  0.005000	  0.028000	  1.007500	   -0.350000	   -0.190000	    0.330000	   24.246094
    8.3556	  0.008000	  0.026000	  1.006000	   -0.460000	   -0.160000	    0.300000	   24.234375
    8.3656	  0.006500	  0.029000	  1.007000	   -0.330000	   -0.280000	    0.250000	   24.246094
    8.3756	  0.006000	  0.026000	  1.005500	   -0.360000	   -0.230000	    0.300000	   24.261719
    8.3856	  0.007500	  0.027500	  1.006500	   -0.430000	   -0.140000	    0.290000	   24.257813
    8.3956	  0.006000	  0.026500	  1.007000	   -0.370000	   -0.130000	    0.280000	   24.277344
    8.4056	  0.004500	  0.027500	  1.006500	   -0.440000	   -0.150000	    0.200000	   24.277344
    8.4156	  0.004000	  0.026000	  1.006000	   -0.440000	   -0.090000	    0.350000	   24.273438
    8.4256	  0.006000	  0.025500	  1.008000	   -0.420000	   -0.220000	    0.270000	   24.277344
    8.4356	  0.004000	  0.026500	  1.006500	   -0.230000	   -0.100000	    0.220000	   24.277344
    8.4456	  0.004500	  0.026000	  1.007000	   -0.340000	   -0.150000	    0.160000	   24.257813
    8.4556	  0.007000	  0.026500	  1.009500	   -0.390000	   -0.100000	    0.340000	   24.246094
    8.4656	  0.006000	  0.025500	  1.007500	   -0.370000	   -0.040000	    0.200000	   24.246094
    8.4756	  0.004500	  0.026000	  1.008000	   -0.340000	   -0.200000	    0.270000	   24.285156
    8.4856	  0.006500	  0.027000	  1.007500	   -0.300000	   -0.080000	    0.220000	   24.253906
    8.4956	  0.007500	  0.025500	  1.007000	   -0.400000	   -0.170000	    0.210000	   24.265625
    8.5056	  0.004500	  0.026500	  1.009500	   -0.400000	   -0.180000	    0.330000	   24.296875
    8.5156	  0.005500	  0.027000	  1.007500	   -0.360000	   -0.170000	    0.230000	   24.289063
    8.5256	  0.007500	  0.028000	  1.009000	   -0.350000	   -0.140000	    0.260000	   24.285156
    8.5356	  0.005500	  0.027000	  1.006500	   -0.310000	   -0.050000	    0.280000	   24.257813
    8.5456	  0.004000	  0.026500	  1.009000	   -0.440000	   -0.170000	    0.210000	   24.261719
    8.5556	  0.007000	  0.027000	  1.008500	   -0.340000	   -0.110000	    0.190000	   24.281250
    8.5656	  0.006000	  0.026000	  1.008000	   -0.340000	   -0.100000	    0.160000	   24.257813
    8.5756	  0.004000	  0.025500	  1.008000	   -0.330000	   -0.070000	    0.200000	   24.253906
    8.5856	  0.006000	  0.026000	  1.008500	   -0.550000	   -0.180000	    0.300000	   24.253906
    8.5956	  0.005000	  0.025500	  1.007500	   -0.400000	    0.000000	    0.360000	   24.253906
    8.6056	  0.004000	  0.027000	  1.006000	   -0.300000	   -0.080000	    0.250000	   24.257813
    8.6156	  0.004500	  0.026500	  1.007500	   -0.290000	   -0.110000	    0.240000	   24.289063
    8.6256	  0.005000	  0.026500	  1.008500	   -0.500000	   -0.230000	    0.280000	   24.265625
    8.6356	  0.004500	  0.027000	  1.008000	   -0.380000	   -0.090000	    0.200000	   24.253906
    8.6456	  0.004500	  0.026500	  1.006500	   -0.460000	   -0.250000	    0.250000	   24.265625
    8.6556	  0.006500	  0.026500	  1.008000	   -0.380000	   -0.260000	    0.260000	   24.261719
    8.6656	  0.006000	  0.027000	  1.007000	   -0.440000	   -0.230000	    0.200000	   24.261719
    8.6756	  0.005500	  0.028000	  1.008000	   -0.240000	   -0.110000	    0.290000	   24.253906
    8.6856	  0.006500	  0.026000	  1.005000	   -0.390000	   -0.130000	    0.310000	   24.253906
    8.6956	  0.005500	  0.027500	  1.007500	   -0.410000	   -0.130000	    0.250000	   24.250000
    8.7056	  0.005500	  0.027000	  1.007500	   -0.380000	   -0.160000	    0.280000	   24.265625
    8.7156	  0.006000	  0.026500	  1.008000	   -0.400000	   -0.220000	    0.260000	   24.246094
    8.7256	  0.005500	  0.028500	  1.006500	   -0.420000	   -0.150000	    0.310000	   24.269531
    8.7356	  0.006000	  0.026500	  1.008000	   -0.420000	   -0.300000	    0.420000	   24.273438
    8.7456	  0.005500	  0.025500	  1.008000	   -0.360000	   -0.150000	    0.180000	   24.285156
    8.7556	  0.005500	  0.026500	  1.009500	   -0.430000	   -0.040000	    0.240000	   24.269531
    8.7656	  0.006000	  0.026000	  1.009000	   -0.410000	   -0.200000	    0.290000	   24.281250
    8.7756	  0.006000	  0.026500	  1.005500	   -0.350000	   -0.250000	    0.360000	   24.289063
    8.7856	  0.006500	  0.026500	  1.009000	   -0.360000	   -0.210000	    0.260000	   24.285156
    8.7956	  0.006500	  0.025500	  1.007000	   -0.440000	   -0.180000	    0.150000	   24.269531
    8.8056	  0.006500	  0.026000	  1.008500	   -0.420000	   -0.240000	    0.320000	   24.250000
    8.8156	  0.006000	  0.026500	  1.009000	   -0.330000	   -0.210000	    0.330000	   24.246094
    8.8256	  0.005000	  0.027000	  1.007500	   -0.400000	   -0.160000	    0.190000	   24.265625
    8.8356	  0.007000	  0.025500	  1.007000	   -0.260000	   -0.160000	    0.340000	   24.273438
    8.8456	  0.006500	  0.026000	  1.008500	   -0.370000	   -0.100000	    0.280000	   24.269531
    8.8556	  0.007500	  0.026000	  1.006500	   -0.350000	   -0.250000	    0.250000	   24.277344
    8.8656	  0.006500	  0.025500	  1.006000	   -0.420000	   -0.240000	    0.260000	   24.292969
    8.8756	  0.007500	  0.026500	  1.009000	   -0.330000	   -0.140000	    0.260000	   24.300781
    8.8856	  0.006500	  0.027000	  1.007500	   -0.430000	   -0.150000	    0.300000	   24.292969
    8.8956	  0.006000	  0.027500	  1.007500	   -0.450000	   -0.190000	    0.280000	   24.296875
    8.9056	  0.006000	  0.026500	  1.006000	   -0.470000	   -0.090000	    0.330000	   24.269531
    8.9156	  0.006000	  0.028000	  1.009000	   -0.410000	   -0.040000	    0.310000	   24.246094
    8.9256	  0.005000	  0.026000	  1.005500	   -0.340000	   -0.300000	    0.260000	   24.269531
    8.9356	  0.005500	  0.025500	  1.009500	   -0.380000	   -0.130000	    0.270000	   24.269531
    8.9457	  0.005500	  0.026000	  1.006000	   -0.490000	   -0.150000	    0.410000	   24.277344
    8.9556	  0.006000	  0.027000	  1.008000	   -0.500000	   -0.140000	    0.130000	   24.281250
    8.9656	  0.005500	  0.026000	  1.008000	   -0.310000	   -0.080000	    0.270000	   24.273438
    8.9756	  0.006000	  0.026500	  1.006500	   -0.330000	   -0.010000	    0.230000	   24.300781
    8.9856	  0.004500	  0.026500	  1.009000	   -0.250000	   -0.070000	    0.230000	   24.281250
    8.9956	  0.006000	  0.026000	  1.009000	   -0.370000	   -0.050000	    0.300000	   24.265625
    9.0056	  0.006000	  0.027000	  1.008500	   -0.370000	   -0.140000	    0.260000	   24.277344
    9.0156	  0.006000	  0.025500	  1.008500	   -0.390000	   -0.090000	    0.330000	   24.273438
    9.0256	  0.006500	  0.028000	  1.009500	   -0.320000	   -0.270000	    0.350000	   24.281250
    9.0356	  0.006500	  0.026500	  1.007500	   -0.420000	   -0.100000	    0.270000	   24.292969
    9.0456	  0.006000	  0.027500	  1.006500	   -0.340000	    0.030000	    0.300000	   24.296875
    9.0556	  0.006000	  0.027500	  1.008000	   -0.340000	   -0.240000	    0.320000	   24.296875
    9.0656	  0.006000	  0.027000	  1.008000	   -0.320000	   -0.120000	    0.150000	   24.300781
    9.0756	  0.005500	  0.027000	  1.007500	   -0.400000	    0.020000	    0.250000	   24.292969
    9.0856	  0.005000	  0.027000	  1.006500	   -0.380000	   -0.060000	    0.240000	   24.265625
    9.0960	  0.006000	  0.027000	  1.008000	   -0.270000	    0.050000	    0.140000	   24.281250
    9.1056	  0.004500	  0.026500	  1.007000	   -0.400000	   -0.020000	    0.330000	   24.285156
    9.1156	  0.005500	  0.027000	  1.008000	   -0.380000	   -0.120000	    0.180000	   24.269531
    9.1256	  0.005000	  0.026000	  1.006000	   -0.330000	   -0.040000	    0.220000	   24.261719
    9.1356	  0.006000	  0.026500	  1.007500	   -0.420000	   -0.180000	    0.290000	   24.261719
    9.1457	  0.005500	  0.025500	  1.008000	   -0.390000	   -0.120000	    0.260000	   24.250000
    9.1556	  0.006000	  0.026500	  1.008000	   -0.480000	    0.000000	    0.340000	   24.238281
    9.1656	  0.006500	  0.026500	  1.007000	   -0.450000	   -0.200000	    0.290000	   24.269531
    9.1756	  0.005500	  0.027500	  1.007000	   -0.390000	   -0.120000	    0.330000	   24.289063
    9.1856	  0.005000	  0.027500	  1.008000	   -0.440000	   -0.230000	    0.250000	   24.289063
    9.1956	  0.006500	  0.026000	  1.006500	   -0.420000	   -0.160000	    0.220000	   24.281250
    9.2056	  0.004500	  0.026500	  1.008500	   -0.420000	   -0.070000	    0.180000	   24.285156
    9.2156	  0.005000	  0.027000	  1.006000	   -0.330000	   -0.120000	    0.260000	   24.281250
    9.2256	  0.006000	  0.027500	  1.008000	   -0.410000	   -0.150000	    0.300000	   24.277344
    9.2356	  0.004500	  0.026000	  1.006000	   -0.430000	   -0.080000	    0.270000	   24.281250
    9.2457	  0.005000	  0.027500	  1.007000	   -0.420000	   -0.100000	    0.270000	   24.277344
    9.2556	  0.005000	  0.025500	  1.007500	   -0.410000	   -0.140000	    0.200000	   24.273438
    9.2656	  0.005000	  0.026000	  1.007000	   -0.350000	   -0.110000	    0.180000	   24.265625
    9.2756	  0.004500	  0.025000	  1.007000	   -0.340000	   -0.100000	    0.310000	   24.269531
    9.2856	  0.004500	  0.026000	  1.008000	   -0.440000	   -0.150000	    0.320000	   24.296875
    9.2956	  0.006500	  0.027000	  1.008500	   -0.480000	   -0.230000	    0.370000	   24.289063
    9.3056	  0.005000	  0.026000	  1.008000	   -0.400000	   -0.130000	    0.230000	   24.281250
    9.3156	  0.005000	  0.026500	  1.007500	   -0.430000	   -0.180000	    0.210000	   24.269531
    9.3256	  0.005500	  0.026500	  1.006500	   -0.270000	   -0.130000	    0.200000	   24.281250
    9.3356	  0.005500	  0.027000	  1.008000	   -0.360000	   -0.120000	    0.330000	   24.253906
    9.3457	  0.005500	  0.027500	  1.009000	   -0.420000	   -0.130000	    0.290000	   24.261719
    9.3556	  0.005000	  0.027500	  1.008500	   -0.350000	   -0.120000	    0.190000	   24.269531
    9.3656	  0.006000	  0.027500	  1.007000	   -0.400000	   -0.150000	    0.290000	   24.300781
    9.3756	  0.005500	  0.028000	  1.007500	   -0.410000	   -0.110000	    0.240000	   24.277344
    9.3856	  0.006000	  0.026500	  1.009000	   -0.350000	   -0.110000	    0.260000	   24.289063
    9.3956	  0.006500	  0.026000	  1.008000	   -0.380000	   -0.220000	    0.290000	   24.312500
    9.4056	  0.007000	  0.027500	  1.007500	   -0.320000	   -0.070000	    0.250000	   24.296875
    9.4156	  0.007000	  0.027000	  1.007000	   -0.350000	   -0.080000	    0.190000	   24.273438
    9.4256	  0.007000	  0.028500	  1.007500	   -0.420000	   -0.270000	    0.330000	   24.253906
    9.4356	  0.007500	  0.028000	  1.007500	   -0.350000	   -0.100000	    0.190000	   24.269531
    9.4457	  0.006500	  0.029000	  1.008500	   -0.410000	   -0.170000	    0.250000	   24.289063
    9.4556	  0.006000	  0.028000	  1.007000	   -0.370000	   -0.230000	    0.280000	   24.273438
    9.4656	  0.007000	  0.027500	  1.009000	   -0.280000	   -0.100000	    0.270000	   24.250000
    9.4756	  0.005500	  0.026500	  1.008000	   -0.410000	   -0.190000	    0.240000	   24.292969
    9.4856	  0.005000	  0.025500	  1.005000	   -0.360000	   -0.130000	    0.170000	   24.261719
    9.4956	  0.004500	  0.024500	  1.007500	   -0.470000	   -0.120000	    0.280000	   24.253906
    9.5056	  0.003000	  0.024500	  1.008000	   -0.420000	   -0.120000	    0.370000	   24.277344
    9.5157	  0.003500	  0.025000	  1.007000	   -0.360000	   -0.250000	    0.290000	   24.296875
    9.5256	  0.003500	  0.024500	  1.006000	   -0.450000	   -0.170000	    0.240000	   24.285156
    9.5356	  0.006500	  0.025000	  1.004500	   -0.310000	   -0.080000	    0.200000	   24.265625
    9.5457	  0.005500	  0.025500	  1.006000	   -0.370000	   -0.200000	    0.180000	   24.281250
    9.5557	  0.007000	  0.024000	  1.005500	   -0.240000	   -0.120000	    0.250000	   24.281250
    9.5657	  0.007000	  0.028500	  1.004000	   -0.380000	   -0.200000	    0.260000	   24.273438
    9.5757	  0.005500	  0.023500	  1.006500	   -0.430000	   -0.170000	    0.350000	   24.257813
    9.5857	  0.007500	  0.026000	  1.007500	   -0.360000	   -0.170000	    0.290000	   24.257813
    9.5957	  0.005500	  0.025500	  1.007000	   -0.350000	   -0.240000	    0.240000	   24.285156
    9.6057	  0.006500	  0.028500	  1.008000	   -0.300000	   -0.140000	    0.330000	   24.296875
    9.6157	  0.009500	  0.026500	  1.008500	   -0.390000	   -0.120000	    0.190000	   24.281250
    9.6257	  0.007500	  0.028000	  1.009500	   -0.250000	   -0.210000	    0.290000	   24.269531
    9.6357	  0.007500	  0.028500	  1.008000	   -0.420000	   -0.190000	    0.210000	   24.277344
    9.6457	  0.008500	  0.028000	  1.009500	   -0.450000	   -0.290000	    0.270000	   24.273438
    9.6557	  0.007500	  0.027500	  1.011500	   -0.370000	   -0.170000	    0.230000	   24.285156
    9.6657	  0.006000	  0.027000	  1.010000	   -0.460000	   -0.090000	    0.200000	   24.277344
    9.6757	  0.006000	  0.026500	  1.010000	   -0.440000	   -0.100000	    0.330000	   24.273438
    9.6857	  0.005500	  0.026500	  1.010500	   -0.420000	   -0.040000	    0.230000	   24.250000
    9.6957	  0.004000	  0.025500	  1.008000	   -0.260000	   -0.150000	    0.270000	   24.253906
    9.7057	  0.002000	  0.026500	  1.009000	   -0.320000	   -0.080000	    0.190000	   24.257813
    9.7157	  0.003000	  0.025500	  1.010500	   -0.370000	    0.080000	    0.170000	   24.277344
    9.7257	  0.004500	  0.023500	  1.007500	   -0.400000	   -0.090000	    0.230000	   24.281250
    9.7357	  0.001500	  0.025000	  1.007000	   -0.340000	   -0.100000	    0.140000	   24.265625
    9.7457	  0.004500	  0.025500	  1.007000	   -0.390000	   -0.170000	    0.380000	   24.269531
    9.7557	  0.006000	  0.027500	  1.009500	   -0.450000	    0.010000	    0.210000	   24.265625
    9.7657	  0.006500	  0.027500	  1.005000	   -0.360000	   -0.160000	    0.320000	   24.281250
    9.7757	  0.006500	  0.027000	  1.005500	   -0.370000	   -0.140000	    0.380000	   24.277344
    9.7857	  0.007000	  0.028000	  1.006000	   -0.360000	   -0.200000	    0.310000	   24.281250
    9.7957	  0.007000	  0.027000	  1.005000	   -0.270000	   -0.030000	    0.180000	   24.292969
    9.8057	  0.006500	  0.028000	  1.005500	   -0.290000	   -0.120000	    0.170000	   24.281250
    9.8157	  0.007000	  0.026500	  1.005500	   -0.280000	   -0.150000	    0.300000	   24.289063
    9.8257	  0.008000	  0.027500	  1.008000	   -0.310000	   -0.130000	    0.280000	   24.277344
    9.8357	  0.005500	  0.028000	  1.007000	   -0.390000	   -0.130000	    0.270000	   24.296875
    9.8457	  0.005000	  0.026500	  1.007500	   -0.370000	   -0.240000	    0.200000	   24.296875
    9.8557	  0.005500	  0.025500	  1.007000	   -0.440000	   -0.260000	    0.230000	   24.277344
    9.8657	  0.005000	  0.026500	  1.007500	   -0.360000	   -0.250000	    0.280000	   24.261719
    9.8757	  0.003500	  0.025500	  1.007000	   -0.310000	   -0.010000	    0.140000	   24.261719
    9.8857	  0.005500	  0.024500	  1.010000	   -0.310000	   -0.090000	    0.210000	   24.269531
    9.8957	  0.006500	  0.025500	  1.008000	   -0.420000	   -0.170000	    0.210000	   24.269531
    9.9057	  0.004000	  0.027000	  1.009000	   -0.390000	   -0.240000	    0.350000	   24.265625
    9.9157	  0.004500	  0.026500	  1.009500	   -0.350000	   -0.100000	    0.330000	   24.289063
    9.9257	  0.007000	  0.026000	  1.008000	   -0.410000	   -0.110000	    0.290000	   24.289063
    9.9357	  0.006500	  0.026500	  1.008500	   -0.420000	   -0.150000	    0.370000	   24.289063
    9.9457	  0.005500	  0.026500	  1.008500	   -0.370000	   -0.160000	    0.220000	   24.285156
    9.9557	  0.007000	  0.026500	  1.007000	   -0.490000	   -0.080000	    0.180000	   24.281250
    9.9657	  0.006500	  0.027000	  1.006500	   -0.410000	   -0.270000	    0.340000	   24.289063
    9.9757	  0.006000	  0.027000	  1.006500	   -0.410000	   -0.190000	    0.270000	   24.296875
    9.9857	  0.006500	  0.026500	  1.007000	   -0.300000	   -0.140000	    0.230000	   24.296875
    9.9957	  0.005000	  0.026000	  1.008000	   -0.490000	   -0.180000	    0.250000	   24.285156
   10.0057	  0.005000	  0.026000	  1.007000	   -0.310000	   -0.030000	    0.320000	   24.304688
   10.0157	  0.004500	  0.026500	  1.006500	   -0.300000	   -0.120000	    0.250000	   24.292969
   10.0257	  0.005000	  0.025500	  1.006500	   -0.330000	   -0.130000	    0.130000	   24.285156
   10.0357	  0.003500	  0.026000	  1.005500	   -0.330000	   -0.160000	    0.340000	   24.277344
   10.0457	  0.005000	  0.026500	  1.007000	   -0.310000	   -0.210000	    0.210000	   24.281250
   10.0557	  0.005500	  0.026000	  1.007500	   -0.240000	   -0.030000	    0.210000	   24.265625
   10.0657	  0.005000	  0.027500	  1.008500	   -0.470000	   -0.220000	    0.360000	   24.285156
   10.0757	  0.004000	  0.026500	  1.006000	   -0.270000	   -0.010000	    0.290000	   24.285156
   10.0857	  0.006000	  0.026500	  1.007000	   -0.320000	   -0.070000	    0.260000	   24.281250
   10.0961	  0.006500	  0.025500	  1.007000	   -0.400000	   -0.160000	    0.270000	   24.312500
   10.1057	  0.006000	  0.026000	  1.008000	   -0.310000	   -0.190000	    0.360000	   24.261719
   10.1157	  0.006000	  0.027500	  1.008000	   -0.430000	   -0.220000	    0.230000	   24.261719
   10.1257	  0.007000	  0.028000	  1.008000	   -0.330000	   -0.150000	    0.250000	   24.257813
   10.1357	  0.006500	  0.028500	  1.008000	   -0.410000	   -0.270000	    0.310000	   24.269531
   10.1457	  0.007500	  0.028000	  1.009500	   -0.380000	   -0.190000	    0.290000	   24.292969
   10.1557	  0.008000	  0.028000	  1.008500	   -0.380000	   -0.140000	    0.170000	   24.296875
   10.1657	  0.008000	  0.027000	  1.008000	   -0.280000	   -0.130000	    0.300000	   24.281250
   10.1757	  0.007000	  0.026500	  1.007500	   -0.280000	   -0.200000	    0.170000	   24.273438
   10.1857	  0.006000	  0.026500	  1.008000	   -0.510000	   -0.160000	    0.380000	   24.269531
   10.1957	  0.006000	  0.027000	  1.007500	   -0.430000	   -0.060000	    0.270000	   24.304688
   10.2057	  0.005500	  0.025000	  1.007500	   -0.230000	   -0.130000	    0.260000	   24.296875
   10.2157	  0.006000	  0.026000	  1.008000	   -0.390000	   -0.170000	    0.180000	   24.265625
   10.2257	  0.006500	  0.026000	  1.009000	   -0.290000	   -0.110000	    0.140000	   24.281250
   10.2357	  0.005000	  0.026000	  1.007500	   -0.390000	   -0.130000	    0.340000	   24.277344
   10.2457	  0.004000	  0.026500	  1.008000	   -0.450000	   -0.110000	    0.240000	   24.253906
   10.2557	  0.005500	  0.025500	  1.007500	   -0.410000	   -0.020000	    0.200000	   24.281250
   10.2657	  0.006000	  0.025500	  1.009000	   -0.260000	   -0.090000	    0.250000	   24.277344
   10.2757	  0.006000	  0.026000	  1.008500	   -0.480000	   -0.260000	    0.230000	   24.269531
   10.2857	  0.007000	  0.026500	  1.008500	   -0.330000	   -0.160000	    0.230000	   24.300781
   10.2957	  0.008000	  0.028000	  1.008500	   -0.490000	   -0.110000	    0.330000	   24.300781
   10.3057	  0.008000	  0.028500	  1.010000	   -0.430000	   -0.060000	    0.230000	   24.292969
   10.3157	  0.008000	  0.026500	  1.008000	   -0.390000	   -0.250000	    0.220000	   24.273438
   10.3257	  0.008000	  0.027500	  1.007000	   -0.390000	    0.000000	    0.220000	   24.292969
   10.3357	  0.005500	  0.028500	  1.006000	   -0.330000	    0.070000	    0.320000	   24.289063
   10.3457	  0.007000	  0.027000	  1.005500	   -0.360000	   -0.120000	    0.220000	   24.289063
   10.3557	  0.005500	  0.028500	  1.007000	   -0.430000	   -0.010000	    0.370000	   24.273438
   10.3657	  0.004000	  0.028500	  1.006000	   -0.350000	   -0.080000	    0.230000	   24.285156
   10.3757	  0.004000	  0.025000	  1.007000	   -0.490000	   -0.150000	    0.170000	   24.281250
   10.3857	  0.003500	  0.027000	  1.006500	   -0.380000	   -0.250000	    0.300000	   24.285156
   10.3957	  0.002500	  0.025000	  1.007000	   -0.350000	   -0.080000	    0.150000	   24.304688
   10.4057	  0.004000	  0.024500	  1.008500	   -0.280000	   -0.200000	    0.240000	   24.296875
   10.4157	  0.005000	  0.023500	  1.006500	   -0.450000	   -0.220000	    0.320000	   24.312500
   10.4257	  0.003000	  0.025500	  1.008500	   -0.270000	   -0.070000	    0.240000	   24.273438
   10.4357	  0.005500	  0.024500	  1.007000	   -0.320000	   -0.160000	    0.300000	   24.257813
   10.4457	  0.005500	  0.025000	  1.007000	   -0.440000	   -0.040000	    0.260000	   24.285156
   10.4557	  0.006000	  0.026000	  1.007500	   -0.370000	   -0.060000	    0.350000	   24.296875
   10.4657	  0.006500	  0.028000	  1.006500	   -0.430000	   -0.020000	    0.200000	   24.292969
   10.4757	  0.006500	  0.027500	  1.008000	   -0.280000	   -0.140000	    0.240000	   24.281250
   10.4857	  0.008000	  0.027500	  1.007500	   -0.400000	   -0.060000	    0.350000	   24.281250
   10.4957	  0.006500	  0.027000	  1.007000	   -0.360000	   -0.290000	    0.220000	   24.269531
   10.5057	  0.007500	  0.027000	  1.008500	   -0.400000	   -0.160000	    0.230000	   24.312500
   10.5157	  0.005000	  0.027000	  1.007000	   -0.320000	   -0.110000	    0.110000	   24.316406
   10.5257	  0.006000	  0.027500	  1.009500	   -0.350000	   -0.110000	    0.230000	   24.292969
   10.5357	  0.005000	  0.026500	  1.007500	   -0.340000	   -0.090000	    0.240000	   24.277344
   10.5457	  0.005500	  0.026500	  1.007500	   -0.390000	   -0.060000	    0.260000	   24.277344
   10.5557	  0.004500	  0.027000	  1.009000	   -0.350000	   -0.160000	    0.240000	   24.273438
   10.5657	  0.004500	  0.026500	  1.008000	   -0.410000	   -0.040000	    0.150000	   24.253906
   10.5757	  0.004000	  0.026500	  1.009000	   -0.520000	   -0.120000	    0.270000	   24.277344
   10.5857	  0.005000	  0.026500	  1.008000	   -0.440000	   -0.120000	    0.220000	   24.273438
   10.5957	  0.006000	  0.027500	  1.007500	   -0.490000	   -0.110000	    0.210000	   24.257813
   10.6057	  0.006500	  0.027000	  1.006000	   -0.410000	   -0.110000	    0.240000	   24.281250
   10.6157	  0.007000	  0.027000	  1.008000	   -0.210000	   -0.090000	    0.250000	   24.300781
   10.6257	  0.007000	  0.028000	  1.007000	   -0.400000	   -0.100000	    0.290000	   24.281250
   10.6357	  0.007500	  0.028500	  1.006000	   -0.460000	   -0.220000	    0.240000	   24.265625
   10.6458	  0.005500	  0.027500	  1.008500	   -0.370000	   -0.180000	    0.220000	   24.261719
   10.6557	  0.006000	  0.026000	  1.008000	   -0.340000	   -0.240000	    0.260000	   24.269531
   10.6657	  0.006000	  0.027000	  1.007000	   -0.230000	   -0.100000	    0.280000	   24.269531
   10.6757	  0.004500	  0.025000	  1.007000	   -0.410000	   -0.230000	    0.240000	   24.265625
   10.6857	  0.005500	  0.026000	  1.007500	   -0.490000	   -0.240000	    0.350000	   24.281250
   10.6957	  0.005000	  0.025000	  1.006500	   -0.420000	   -0.140000	    0.240000	   24.292969
   10.7057	  0.005500	  0.026500	  1.008000	   -0.350000	   -0.210000	    0.240000	   24.281250
   10.7157	  0.004500	  0.025500	  1.008000	   -0.410000	   -0.170000	    0.200000	   24.281250
   10.7257	  0.005000	  0.026000	  1.007500	   -0.420000	   -0.270000	    0.340000	   24.285156
   10.7357	  0.006000	  0.026000	  1.006500	   -0.390000	   -0.120000	    0.270000	   24.281250
   10.7458	  0.006000	  0.025500	  1.006500	   -0.520000	   -0.060000	    0.220000	   24.312500
   10.7557	  0.006000	  0.026500	  1.007500	   -0.400000	   -0.130000	    0.220000	   24.296875
   10.7657	  0.006000	  0.025500	  1.008000	   -0.520000	   -0.160000	    0.320000	   24.285156
   10.7757	  0.006500	  0.026500	  1.008000	   -0.350000	   -0.170000	    0.230000	   24.281250
   10.7857	  0.006500	  0.026500	  1.007000	   -0.400000	   -0.210000	    0.160000	   24.269531
   10.7957	  0.006500	  0.027500	  1.009000	   -0.340000	   -0.120000	    0.250000	   24.277344
   10.8057	  0.006000	  0.027500	  1.006000	   -0.240000	   -0.010000	    0.180000	   24.273438
   10.8157	  0.005500	  0.028000	  1.007500	   -0.300000	   -0.140000	    0.260000	   24.292969
   10.8257	  0.006000	  0.027000	  1.008500	   -0.290000	   -0.130000	    0.220000	   24.281250
   10.8357	  0.005500	  0.027500	  1.008500	   -0.450000	   -0.210000	    0.140000	   24.292969
   10.8458	  0.005000	  0.026500	  1.005000	   -0.260000	   -0.090000	    0.140000	   24.273438
   10.8557	  0.005000	  0.027500	  1.007000	   -0.290000	   -0.140000	    0.230000	   24.273438
   10.8657	  0.007000	  0.026500	  1.006500	   -0.410000	   -0.060000	    0.180000	   24.304688
   10.8757	  0.005500	  0.027000	  1.007500	   -0.380000	   -0.200000	    0.310000	   24.296875
   10.8857	  0.005500	  0.027000	  1.007000	   -0.400000	   -0.120000	    0.220000	   24.281250
   10.8957	  0.006000	  0.026500	  1.008000	   -0.420000	   -0.050000	    0.220000	   24.308594
   10.9057	  0.006500	  0.026500	  1.008000	   -0.370000	   -0.010000	    0.260000	   24.316406
   10.9157	  0.007000	  0.026500	  1.007500	   -0.450000	   -0.090000	    0.290000	   24.316406
   10.9257	  0.006500	  0.026000	  1.006500	   -0.390000	   -0.050000	    0.240000	   24.296875
   10.9357	  0.006500	  0.025000	  1.006500	   -0.480000	   -0.160000	    0.310000	   24.281250
   10.9458	  0.006500	  0.026500	  1.009000	   -0.390000	    0.000000	    0.140000	   24.273438
   10.9557	  0.007000	  0.026000	  1.007000	   -0.390000	   -0.100000	    0.230000	   24.269531
   10.9657	  0.005000	  0.027000	  1.008000	   -0.240000	   -0.140000	    0.310000	   24.281250
   10.9757	  0.006000	  0.026000	  1.007000	   -0.290000	   -0.180000	    0.240000	   24.273438
   10.9857	  0.004500	  0.027000	  1.008000	   -0.360000	   -0.070000	    0.240000	   24.285156
   10.9957	  0.005000	  0.027000	  1.008500	   -0.370000	   -0.280000	    0.260000	   24.335938
   11.0057	  0.005500	  0.026500	  1.007500	   -0.410000	   -0.180000	    0.270000	   24.320313
   11.0157	  0.004000	  0.026000	  1.008500	   -0.420000	   -0.140000	    0.160000	   24.292969
   11.0257	  0.005500	  0.026500	  1.008000	   -0.390000	   -0.100000	    0.330000	   24.292969
   11.0357	  0.006000	  0.027500	  1.008000	   -0.430000	   -0.190000	    0.260000	   24.300781
   11.0457	  0.006000	  0.026000	  1.007500	   -0.360000	   -0.140000	    0.220000	   24.277344
   11.0557	  0.006000	  0.027000	  1.008000	   -0.360000	   -0.110000	    0.290000	   24.265625
   11.0657	  0.005000	  0.027000	  1.008500	   -0.360000	   -0.170000	    0.220000	   24.296875
   11.0757	  0.006000	  0.027500	  1.007500	   -0.320000	   -0.160000	    0.300000	   24.277344
   11.0857	  0.005000	  0.027500	  1.008000	   -0.300000	   -0.180000	    0.240000	   24.281250
   11.0961	  0.005500	  0.026500	  1.007500	   -0.460000	   -0.130000	    0.140000	   24.289063
   11.1058	  0.007000	  0.026000	  1.008500	   -0.390000	   -0.080000	    0.310000	   24.277344
   11.1157	  0.008500	  0.027000	  1.005500	   -0.310000	   -0.100000	    0.260000	   24.273438
   11.1257	  0.009500	  0.026500	  1.007500	   -0.380000	   -0.020000	    0.250000	   24.273438
   11.1357	  0.008000	  0.026500	  1.004500	   -0.230000	   -0.090000	    0.240000	   24.292969
   11.1458	  0.007000	  0.027500	  1.007000	   -0.280000	   -0.110000	    0.220000	   24.285156
   11.1557	  0.006000	  0.026000	  1.007000	   -0.420000	   -0.070000	    0.210000	   24.300781
   11.1657	  0.004000	  0.028000	  1.007000	   -0.240000	   -0.140000	    0.290000	   24.316406
   11.1757	  0.001500	  0.026500	  1.007500	   -0.420000	   -0.210000	    0.240000	   24.296875
   11.1857	  0.002000	  0.026500	  1.009500	   -0.330000	   -0.220000	    0.170000	   24.277344
   11.1957	  0.003000	  0.024500	  1.007500	   -0.390000	   -0.010000	    0.200000	   24.281250
   11.2057	  0.001000	  0.025500	  1.007000	   -0.360000	   -0.170000	    0.270000	   24.285156
   11.2158	  0.003000	  0.025500	  1.008500	   -0.390000	   -0.080000	    0.270000	   24.304688
   11.2257	  0.005000	  0.025500	  1.007500	   -0.420000	   -0.170000	    0.400000	   24.242188
   11.2357	  0.005000	  0.026500	  1.007500	   -0.420000	   -0.180000	    0.370000	   24.273438
   11.2458	  0.006500	  0.025500	  1.006500	   -0.410000	   -0.240000	    0.260000	   24.296875
   11.2558	  0.008000	  0.026500	  1.009000	   -0.440000	   -0.220000	    0.350000	   24.312500
   11.2658	  0.007500	  0.026500	  1.007000	   -0.370000	   -0.130000	    0.230000	   24.296875
   11.2758	  0.004500	  0.027500	  1.009500	   -0.420000	   -0.240000	    0.310000	   24.285156
   11.2858	  0.006000	  0.027000	  1.010000	   -0.420000	   -0.170000	    0.330000	   24.277344
   11.2958	  0.007500	  0.027000	  1.006500	   -0.340000	   -0.080000	    0.270000	   24.273438
   11.3058	  0.007500	  0.027000	  1.008000	   -0.240000	   -0.200000	    0.230000	   24.289063
   11.3158	  0.009000	  0.028500	  1.006500	   -0.370000	   -0.110000	    0.270000	   24.289063
   11.3258	  0.013000	  0.028000	  1.006500	   -0.300000	    0.020000	    0.200000	   24.269531
   11.3358	  0.008000	  0.027500	  1.006500	   -0.320000	   -0.160000	    0.220000	   24.277344
   11.3458	  0.006000	  0.027500	  1.005000	   -0.330000	   -0.070000	    0.150000	   24.285156
   11.3558	  0.007000	  0.027500	  1.007500	   -0.390000	   -0.150000	    0.210000	   24.285156
   11.3658	  0.003500	  0.026000	  1.007500	   -0.320000	   -0.210000	    0.220000	   24.285156
   11.3758	 -0.002000	  0.025000	  1.008000	   -0.300000	   -0.140000	    0.140000	   24.292969
   11.3858	  0.000500	  0.024500	  1.009500	   -0.330000	   -0.120000	    0.240000	   24.296875
   11.3958	  0.002500	  0.026000	  1.007000	   -0.490000	   -0.130000	    0.220000	   24.320313
   11.4058	 -0.000500	  0.025500	  1.008000	   -0.350000	   -0.230000	    0.270000	   24.292969
   11.4158	  0.003000	  0.026500	  1.007500	   -0.330000	    0.000000	    0.180000	   24.320313
   11.4258	  0.008500	  0.026500	  1.008500	   -0.310000	   -0.340000	    0.310000	   24.335938
   11.4358	  0.006500	  0.027000	  1.006000	   -0.300000	   -0.260000	    0.340000	   24.335938
   11.4458	  0.006500	  0.028000	  1.008000	   -0.370000	   -0.270000	    0.270000	   24.304688
   11.4558	  0.009500	  0.027500	  1.006000	   -0.360000	   -0.220000	    0.260000	   24.281250
   11.4658	  0.007500	  0.025500	  1.006500	   -0.330000	   -0.110000	    0.300000	   24.308594
   11.4758	  0.005000	  0.025500	  1.008000	   -0.340000	   -0.180000	    0.210000	   24.296875
   11.4858	  0.009500	  0.025000	  1.010500	   -0.380000	   -0.120000	    0.220000	   24.296875
   11.4958	  0.011000	  0.028000	  1.009000	   -0.260000	   -0.010000	    0.300000	   24.312500
   11.5058	  0.009500	  0.028000	  1.009000	   -0.360000	    0.000000	    0.160000	   24.304688
   11.5158	  0.012000	  0.027500	  1.007500	   -0.360000	   -0.120000	    0.220000	   24.312500
   11.5258	  0.012000	  0.028000	  1.005500	   -0.470000	   -0.100000	    0.240000	   24.296875
   11.5358	  0.006000	  0.029000	  1.007500	   -0.310000	   -0.110000	    0.220000	   24.300781
   11.5458	  0.007500	  0.028000	  1.006000	   -0.310000	   -0.030000	    0.250000	   24.292969
   11.5558	  0.003500	  0.027000	  1.007000	   -0.390000	   -0.300000	    0.200000	   24.292969
   11.5658	 -0.001500	  0.025000	  1.009000	   -0.390000	   -0.150000	    0.210000	   24.261719
   11.5758	  0.001500	  0.025500	  1.008500	   -0.400000	   -0.160000	    0.240000	   24.273438
   11.5858	  0.002500	  0.024500	  1.009000	   -0.370000	   -0.130000	    0.280000	   24.312500
   11.5958	 -0.000500	  0.025000	  1.009500	   -0.350000	   -0.100000	    0.150000	   24.292969
   11.6058	  0.002500	  0.025500	  1.008000	   -0.280000	   -0.090000	    0.220000	   24.273438
   11.6158	  0.006000	  0.024500	  1.011000	   -0.390000	   -0.090000	    0.260000	   24.281250
   11.6258	  0.007000	  0.025500	  1.007000	   -0.250000	   -0.220000	    0.230000	   24.281250
   11.6358	  0.007000	  0.027000	  1.006000	   -0.380000	   -0.140000	    0.330000	   24.292969
   11.6458	  0.009000	  0.028000	  1.007000	   -0.450000	   -0.210000	    0.240000	   24.273438
   11.6558	  0.007000	  0.027000	  1.005000	   -0.420000	   -0.130000	    0.240000	   24.273438
   11.6658	  0.004500	  0.027000	  1.006500	   -0.310000	   -0.040000	    0.260000	   24.296875
   11.6758	  0.009000	  0.026000	  1.008500	   -0.370000	   -0.040000	    0.250000	   24.296875
   11.6858	  0.007500	  0.026500	  1.007000	   -0.270000	   -0.140000	    0.290000	   24.296875
   11.6958	  0.006000	  0.027000	  1.005500	   -0.440000	   -0.060000	    0.230000	   24.269531
   11.7058	  0.011000	  0.027000	  1.009000	   -0.190000	   -0.120000	    0.330000	   24.261719
   11.7158	  0.010500	  0.028000	  1.007000	   -0.360000	   -0.210000	    0.280000	   24.304688
   11.7258	  0.007500	  0.028500	  1.004500	   -0.340000	   -0.120000	    0.210000	   24.316406
   11.7358	  0.005500	  0.028500	  1.005500	   -0.320000	   -0.200000	    0.290000	   24.320313
   11.7458	  0.006000	  0.028000	  1.006500	   -0.380000	   -0.170000	    0.260000	   24.304688
   11.7558	  0.001000	  0.026000	  1.006000	   -0.340000	   -0.220000	    0.290000	   24.300781
   11.7658	 -0.001000	  0.025000	  1.006000	   -0.440000	   -0.100000	    0.360000	   24.296875
   11.7758	  0.002500	  0.025500	  1.009500	   -0.350000	    0.000000	    0.350000	   24.292969
   11.7858	  0.001000	  0.026000	  1.009000	   -0.470000	   -0.240000	    0.250000	   24.292969
   11.7958	 -0.001500	  0.026500	  1.010000	   -0.350000	   -0.010000	    0.320000	   24.289063
   11.8058	  0.005500	  0.026000	  1.009000	   -0.400000	   -0.050000	    0.270000	   24.312500
   11.8158	  0.008500	  0.024500	  1.008500	   -0.340000	   -0.180000	    0.290000	   24.304688
   11.8258	  0.005500	  0.026500	  1.007000	   -0.510000	   -0.070000	    0.240000	   24.281250
   11.8358	  0.007500	  0.027000	  1.007000	   -0.400000	   -0.250000	    0.260000	   24.281250
   11.8458	  0.008500	  0.026000	  1.008000	   -0.430000	   -0.300000	    0.430000	   24.273438
   11.8558	  0.006000	  0.026500	  1.006000	   -0.430000	   -0.280000	    0.280000	   24.289063
   11.8658	  0.007000	  0.026000	  1.010000	   -0.300000	   -0.070000	    0.240000	   24.316406
   11.8758	  0.009500	  0.025000	  1.008000	   -0.310000	   -0.150000	    0.170000	   24.312500
   11.8858	  0.008000	  0.024500	  1.007500	   -0.400000	   -0.120000	    0.240000	   24.304688
   11.8958	  0.008500	  0.027500	  1.010000	   -0.400000	   -0.020000	    0.190000	   24.300781
   11.9058	  0.011500	  0.027500	  1.006000	   -0.400000	   -0.070000	    0.210000	   24.281250
   11.9158	  0.007000	  0.027500	  1.008500	   -0.260000	   -0.230000	    0.290000	   24.273438
   11.9258	  0.006000	  0.028500	  1.008000	   -0.370000	   -0.060000	    0.330000	   24.281250
   11.9358	  0.005000	  0.027500	  1.003500	   -0.530000	   -0.170000	    0.280000	   24.296875
   11.9458	 -0.001000	  0.026500	  1.008500	   -0.280000	   -0.130000	    0.280000	   24.300781
   11.9558	  0.000500	  0.025500	  1.007500	   -0.240000	   -0.160000	    0.250000	   24.296875
   11.9658	  0.002000	  0.025500	  1.007000	   -0.290000	   -0.200000	    0.360000	   24.285156
   11.9758	  0.000000	  0.026500	  1.008000	   -0.460000	   -0.150000	    0.260000	   24.304688
   11.9858	  0.002500	  0.027500	  1.008000	   -0.420000	   -0.210000	    0.290000	   24.300781
   11.9958	  0.006000	  0.026000	  1.006500	   -0.380000	   -0.200000	    0.280000	   24.296875
   12.0058	  0.005000	  0.027500	  1.010000	   -0.480000	   -0.140000	    0.370000	   24.316406
   12.0158	  0.006500	  0.027500	  1.007000	   -0.360000	   -0.190000	    0.320000	   24.304688
   12.0258	  0.008500	  0.026500	  1.007000	   -0.410000	   -0.320000	    0.250000	   24.292969
   12.0358	  0.006000	  0.026500	  1.007500	   -0.380000	   -0.160000	    0.350000	   24.300781
   12.0458	  0.007500	  0.026000	  1.005000	   -0.260000	   -0.190000	    0.180000	   24.316406
   12.0558	  0.009500	  0.025500	  1.009500	   -0.390000	   -0.160000	    0.240000	   24.324219
   12.0658	  0.008500	  0.024500	  1.007000	   -0.390000	   -0.140000	    0.200000	   24.296875
   12.0758	  0.009000	  0.025500	  1.007500	   -0.360000	   -0.160000	    0.180000	   24.308594
   12.0858	  0.011000	  0.027500	  1.010000	   -0.280000	   -0.050000	    0.310000	   24.320313
   12.0962	  0.009000	  0.027000	  1.005000	   -0.430000	   -0.130000	    0.180000	   24.312500
   12.1058	  0.005500	  0.028000	  1.008000	   -0.410000	   -0.210000	    0.280000	   24.304688
   12.1158	  0.007000	  0.030000	  1.011000	   -0.370000	   -0.180000	    0.240000	   24.308594
   12.1258	  0.006000	  0.026500	  1.003500	   -0.380000	   -0.170000	    0.150000	   24.285156
   12.1358	 -0.001500	  0.026000	  1.008500	   -0.350000	   -0.320000	    0.200000	   24.277344
   12.1458	  0.002000	  0.026000	  1.011000	   -0.430000	   -0.260000	    0.230000	   24.296875
   12.1558	  0.004500	  0.025000	  1.005000	   -0.380000	   -0.170000	    0.340000	   24.312500
   12.1658	 -0.002500	  0.024500	  1.011500	   -0.380000	   -0.160000	    0.290000	   24.269531
   12.1758	  0.002500	  0.026000	  1.009500	   -0.410000	   -0.080000	    0.270000	   24.292969
   12.1858	  0.009000	  0.025500	  1.008500	   -0.460000	   -0.110000	    0.350000	   24.320313
   12.1958	  0.003500	  0.025000	  1.009500	   -0.410000	   -0.190000	    0.210000	   24.300781
   12.2058	  0.005500	  0.027500	  1.008000	   -0.450000	   -0.100000	    0.230000	   24.289063
   12.2158	  0.010000	  0.026000	  1.004000	   -0.370000	   -0.090000	    0.300000	   24.304688
   12.2258	  0.005500	  0.026000	  1.007500	   -0.330000	   -0.050000	    0.290000	   24.300781
   12.2358	  0.005500	  0.026000	  1.006000	   -0.310000	   -0.060000	    0.190000	   24.300781
   12.2459	  0.010000	  0.025000	  1.008500	   -0.320000	   -0.080000	    0.250000	   24.300781
   12.2558	  0.010500	  0.027500	  1.007500	   -0.380000	   -0.190000	    0.230000	   24.304688
   12.2658	  0.008000	  0.027500	  1.009500	   -0.390000	   -0.120000	    0.280000	   24.289063
   12.2758	  0.011000	  0.028000	  1.008500	   -0.360000	   -0.050000	    0.150000	   24.281250
   12.2858	  0.010000	  0.028500	  1.005000	   -0.320000	   -0.200000	    0.190000	   24.308594
   12.2958	  0.005500	  0.029500	  1.009500	   -0.290000	   -0.030000	    0.270000	   24.300781
   12.3058	  0.006000	  0.029500	  1.006500	   -0.290000	    0.000000	    0.250000	   24.312500
   12.3158	  0.004000	  0.028000	  1.005000	   -0.470000	   -0.280000	    0.160000	   24.289063
   12.3258	 -0.001000	  0.026000	  1.010500	   -0.390000	   -0.180000	    0.210000	   24.312500
   12.3358	  0.001500	  0.025500	  1.006500	   -0.380000	   -0.150000	    0.230000	   24.296875
   12.3459	  0.001500	  0.024500	  1.006000	   -0.380000	   -0.170000	    0.230000	   24.304688
   12.3558	 -0.001500	  0.026500	  1.010000	   -0.410000	   -0.220000	    0.160000	   24.308594
   12.3658	  0.005000	  0.027000	  1.009000	   -0.390000	   -0.180000	    0.210000	   24.320313
   12.3758	  0.006000	  0.025000	  1.008000	   -0.390000	   -0.100000	    0.320000	   24.296875
   12.3858	  0.003500	  0.027000	  1.010500	   -0.440000	   -0.360000	    0.380000	   24.289063
   12.3958	  0.007500	  0.026500	  1.006500	   -0.310000	   -0.130000	    0.270000	   24.292969
   12.4058	  0.009000	  0.026000	  1.005500	   -0.270000	   -0.160000	    0.270000	   24.308594
   12.4158	  0.004500	  0.026500	  1.007000	   -0.430000	   -0.270000	    0.270000	   24.304688
   12.4258	  0.006500	  0.025000	  1.007000	   -0.350000	   -0.120000	    0.210000	   24.304688
   12.4358	  0.010000	  0.024500	  1.008000	   -0.450000	   -0.120000	    0.320000	   24.300781
   12.4459	  0.009000	  0.026000	  1.006500	   -0.300000	   -0.170000	    0.200000	   24.285156
   12.4558	  0.008000	  0.026000	  1.008500	   -0.390000	   -0.150000	    0.150000	   24.296875
   12.4658	  0.012000	  0.028500	  1.009500	   -0.290000	    0.010000	    0.260000	   24.304688
   12.4758	  0.010000	  0.026500	  1.004500	   -0.330000	   -0.210000	    0.310000	   24.320313
   12.4858	  0.004000	  0.027500	  1.008000	   -0.450000	   -0.190000	    0.260000	   24.281250
   12.4958	  0.007000	  0.029500	  1.008000	   -0.370000	   -0.200000	    0.230000	   24.289063
   12.5058	  0.004500	  0.026500	  1.003000	   -0.420000	   -0.180000	    0.210000	   24.312500
   12.5158	 -0.003000	  0.027000	  1.008500	   -0.370000	   -0.110000	    0.190000	   24.296875
   12.5258	  0.001500	  0.025000	  1.007000	   -0.430000	   -0.040000	    0.230000	   24.273438
   12.5358	  0.003500	  0.024000	  1.005500	   -0.490000	   -0.080000	    0.190000	   24.296875
   12.5459	 -0.002500	  0.026000	  1.010500	   -0.430000	   -0.130000	    0.320000	   24.312500
   12.5558	  0.002500	  0.026500	  1.009000	   -0.320000	   -0.110000	    0.230000	   24.296875
   12.5658	  0.007000	  0.024500	  1.007500	   -0.410000	   -0.150000	    0.250000	   24.312500
   12.5758	  0.003500	  0.026500	  1.008500	   -0.400000	   -0.300000	    0.280000	   24.304688
   12.5858	  0.006000	  0.026500	  1.005500	   -0.470000	   -0.170000	    0.260000	   24.308594
   12.5958	  0.011000	  0.027000	  1.007000	   -0.470000	   -0.240000	    0.260000	   24.304688
   12.6058	  0.006500	  0.026000	  1.009000	   -0.350000	   -0.190000	    0.360000	   24.292969
   12.6158	  0.004000	  0.026000	  1.007000	   -0.360000	   -0.260000	    0.240000	   24.316406
   12.6258	  0.009000	  0.025500	  1.009000	   -0.330000	   -0.150000	    0.260000	   24.316406
   12.6358	  0.010000	  0.026000	  1.008000	   -0.450000	   -0.090000	    0.230000	   24.296875
   12.6459	  0.007500	  0.026000	  1.005500	   -0.410000	   -0.210000	    0.320000	   24.285156
   12.6558	  0.010500	  0.026000	  1.011000	   -0.320000	   -0.130000	    0.180000	   24.281250
   12.6658	  0.011500	  0.027000	  1.004500	   -0.540000	   -0.110000	    0.190000	   24.273438
   12.6758	  0.004500	  0.027500	  1.007000	   -0.240000	   -0.060000	    0.140000	   24.269531
   12.6858	  0.005000	  0.029000	  1.010000	   -0.330000	   -0.070000	    0.240000	   24.285156
