ï»¿Time_s    	AccX_g    	AccY_g    	AccZ_g    	GyroX_degs  	GyroY_degs  	GyroZ_degs  	IMU_Temperature
    0.0988	  0.020500	  0.027500	  0.975500	   -0.330000	    0.010000	   -0.090000	   21.859375
    0.1088	 -0.016000	  0.048000	  0.973000	   -0.040000	   -0.270000	    0.160000	   21.898438
    0.1188	 -0.024500	  0.038000	  1.014000	   -0.360000	    0.050000	   -0.030000	   21.902344
    0.1288	  0.009000	  0.042500	  0.992500	    0.050000	    0.440000	    0.150000	   21.859375
    0.1388	  0.007500	  0.034000	  0.986500	   -0.210000	    0.230000	   -0.190000	   21.847656
    0.1490	 -0.009500	  0.040000	  0.963000	    0.070000	   -0.110000	    0.190000	   21.835938
    0.1589	 -0.009000	  0.046500	  1.017500	   -0.390000	   -0.030000	   -0.100000	   21.859375
    0.1688	  0.007500	  0.043000	  0.984500	    0.100000	    0.210000	    0.060000	   21.863281
    0.1788	  0.008000	  0.046000	  0.982500	   -0.290000	    0.220000	   -0.060000	   21.871094
    0.1888	 -0.005000	  0.033000	  0.959500	    0.050000	   -0.360000	    0.170000	   21.855469
    0.1988	 -0.015000	  0.053500	  1.016500	   -0.340000	   -0.240000	   -0.070000	   21.863281
    0.2088	 -0.002000	  0.037000	  0.994000	    0.060000	    0.180000	    0.030000	   21.875000
    0.2188	  0.008500	  0.049000	  0.990000	   -0.140000	    0.410000	   -0.010000	   21.878906
    0.2290	 -0.002500	  0.027000	  0.960500	   -0.010000	   -0.280000	    0.070000	   21.878906
    0.2388	 -0.018500	  0.057500	  1.028000	   -0.250000	   -0.080000	   -0.010000	   21.890625
    0.2488	  0.004000	  0.037000	  0.988000	   -0.110000	    0.200000	    0.020000	   21.898438
    0.2589	  0.014500	  0.055500	  0.990500	   -0.160000	    0.170000	   -0.080000	   21.886719
    0.2688	 -0.002000	  0.025000	  0.952500	   -0.010000	   -0.070000	    0.080000	   21.906250
    0.2788	 -0.016500	  0.057000	  1.003000	   -0.280000	   -0.130000	   -0.060000	   21.886719
    0.2888	  0.002500	  0.031000	  0.996000	   -0.050000	    0.050000	    0.060000	   21.875000
    0.2988	  0.019000	  0.052500	  0.981000	   -0.170000	    0.280000	   -0.020000	   21.890625
    0.3090	 -0.008500	  0.023000	  0.955500	   -0.100000	   -0.510000	    0.070000	   21.882813
    0.3188	 -0.032000	  0.054500	  1.020500	   -0.180000	   -0.310000	    0.110000	   21.882813
    0.3288	 -0.004000	  0.034000	  1.009500	   -0.090000	    0.190000	   -0.050000	   21.863281
    0.3388	  0.015500	  0.056000	  0.993500	   -0.150000	    0.320000	    0.070000	   21.855469
    0.3488	  0.001500	  0.022000	  0.955000	   -0.080000	   -0.240000	    0.030000	   21.875000
    0.3588	 -0.013500	  0.056000	  0.997000	   -0.180000	   -0.100000	    0.080000	   21.855469
    0.3688	 -0.002500	  0.034000	  1.004000	   -0.170000	   -0.090000	   -0.100000	   21.824219
    0.3788	  0.017000	  0.055500	  0.986000	   -0.110000	    0.120000	   -0.090000	   21.835938
    0.3890	  0.004000	  0.025000	  0.963500	   -0.070000	   -0.150000	   -0.060000	   21.878906
    0.3988	 -0.017000	  0.051500	  0.990000	   -0.270000	   -0.380000	    0.170000	   21.875000
    0.4092	 -0.004000	  0.035000	  1.016000	   -0.160000	   -0.010000	   -0.170000	   21.867188
    0.4188	  0.022500	  0.056000	  0.994500	   -0.040000	   -0.050000	   -0.020000	   21.859375
    0.4288	  0.000500	  0.026000	  0.967000	   -0.190000	   -0.330000	    0.030000	   21.875000
    0.4388	 -0.020500	  0.057000	  0.995500	   -0.110000	   -0.180000	    0.060000	   21.878906
    0.4488	  0.005500	  0.028500	  1.002000	   -0.250000	   -0.090000	   -0.110000	   21.890625
    0.4589	  0.016000	  0.059500	  0.990000	   -0.050000	    0.000000	   -0.030000	   21.875000
    0.4691	 -0.003500	  0.026000	  0.969000	    0.000000	   -0.140000	   -0.010000	   21.875000
    0.4788	 -0.007500	  0.054000	  0.989500	   -0.180000	   -0.370000	    0.050000	   21.898438
    0.4888	 -0.002000	  0.029500	  1.011500	   -0.300000	   -0.200000	   -0.150000	   21.882813
    0.4988	  0.006000	  0.061500	  0.987000	    0.030000	   -0.080000	   -0.030000	   21.863281
    0.5088	  0.007000	  0.025500	  0.984000	   -0.200000	   -0.180000	    0.030000	   21.855469
    0.5188	 -0.002500	  0.050500	  0.987000	   -0.170000	   -0.270000	    0.030000	   21.859375
    0.5288	 -0.009500	  0.028000	  1.006500	   -0.260000	    0.000000	   -0.050000	   21.871094
    0.5388	  0.016500	  0.059000	  0.991000	    0.000000	    0.210000	    0.010000	   21.867188
    0.5490	  0.021000	  0.023000	  0.964000	   -0.110000	   -0.120000	   -0.040000	   21.871094
    0.5589	 -0.020500	  0.056500	  0.997500	   -0.060000	   -0.450000	    0.100000	   21.875000
    0.5688	 -0.021000	  0.030500	  1.005000	   -0.320000	   -0.010000	   -0.050000	   21.886719
    0.5788	  0.015000	  0.056500	  0.986000	    0.030000	    0.190000	    0.100000	   21.890625
    0.5888	  0.010500	  0.025000	  0.986000	   -0.280000	   -0.290000	   -0.040000	   21.855469
    0.5988	 -0.015000	  0.051000	  0.979500	   -0.040000	   -0.230000	    0.190000	   21.875000
    0.6088	 -0.011500	  0.032000	  1.013000	   -0.420000	    0.010000	   -0.070000	   21.871094
    0.6188	  0.013500	  0.053500	  1.000000	    0.150000	    0.210000	    0.060000	   21.871094
    0.6291	  0.013000	  0.030000	  0.980000	   -0.290000	    0.010000	   -0.070000	   21.894531
    0.6388	 -0.004500	  0.051500	  0.976000	   -0.040000	   -0.310000	    0.040000	   21.894531
    0.6488	  0.001500	  0.035000	  1.010500	   -0.300000	    0.080000	   -0.030000	   21.871094
    0.6589	  0.014000	  0.053500	  0.980000	    0.200000	    0.360000	    0.140000	   21.871094
    0.6688	  0.005500	  0.033000	  0.977000	   -0.230000	   -0.190000	   -0.070000	   21.863281
    0.6788	 -0.006000	  0.046000	  0.980000	    0.040000	   -0.180000	    0.140000	   21.867188
    0.6888	 -0.012500	  0.035500	  1.015000	   -0.430000	   -0.040000	    0.000000	   21.859375
    0.6988	 -0.002500	  0.050000	  0.993000	    0.060000	    0.160000	    0.080000	   21.863281
    0.7091	  0.011000	  0.034500	  0.996000	   -0.290000	    0.170000	   -0.140000	   21.859375
    0.7188	 -0.003000	  0.043000	  0.971500	    0.040000	   -0.230000	    0.170000	   21.859375
    0.7288	 -0.011500	  0.037500	  1.021500	   -0.390000	    0.130000	   -0.090000	   21.859375
    0.7389	  0.014000	  0.052000	  0.974500	    0.120000	    0.320000	    0.000000	   21.878906
    0.7488	  0.010500	  0.037500	  0.981500	   -0.250000	   -0.070000	   -0.140000	   21.890625
    0.7589	 -0.008500	  0.044500	  0.980000	    0.200000	   -0.030000	    0.140000	   21.898438
    0.7689	 -0.000500	  0.034500	  0.998000	   -0.380000	    0.100000	   -0.160000	   21.886719
    0.7788	  0.006500	  0.045500	  0.980500	    0.040000	    0.040000	    0.030000	   21.875000
    0.7891	  0.006500	  0.034000	  0.987500	   -0.300000	   -0.010000	   -0.170000	   21.886719
    0.7988	 -0.005500	  0.044000	  0.982500	    0.010000	   -0.350000	    0.140000	   21.875000
    0.8089	 -0.018500	  0.035500	  1.023500	   -0.340000	    0.080000	   -0.020000	   21.871094
    0.8188	  0.002500	  0.052000	  0.986500	    0.190000	    0.550000	    0.030000	   21.867188
    0.8289	  0.015000	  0.035000	  0.982000	   -0.240000	    0.230000	   -0.090000	   21.863281
    0.8389	 -0.001500	  0.045500	  0.972000	    0.130000	   -0.320000	    0.110000	   21.832031
    0.8489	 -0.010500	  0.042000	  1.011000	   -0.370000	    0.080000	   -0.010000	   21.863281
    0.8589	  0.007000	  0.043500	  0.972500	    0.080000	    0.260000	    0.180000	   21.867188
    0.8691	  0.009500	  0.038500	  0.991000	   -0.110000	    0.180000	   -0.080000	   21.875000
    0.8789	 -0.006500	  0.040000	  0.971500	   -0.030000	   -0.130000	    0.130000	   21.882813
    0.8889	 -0.007500	  0.040500	  1.017000	   -0.380000	   -0.060000	   -0.060000	   21.882813
    0.8989	  0.008000	  0.042500	  0.991500	    0.140000	    0.180000	    0.050000	   21.863281
    0.9089	  0.005000	  0.040000	  0.985500	   -0.350000	    0.040000	    0.000000	   21.886719
    0.9189	 -0.007500	  0.040500	  0.971500	    0.080000	   -0.240000	    0.110000	   21.910156
    0.9289	 -0.005500	  0.042500	  1.024000	   -0.340000	    0.130000	   -0.070000	   21.890625
    0.9389	  0.002000	  0.044000	  0.970000	    0.210000	    0.240000	    0.210000	   21.882813
    0.9491	  0.001500	  0.044000	  0.990000	   -0.190000	    0.160000	   -0.150000	   21.871094
    0.9589	 -0.001000	  0.036500	  0.968000	    0.060000	   -0.160000	    0.120000	   21.890625
    0.9689	 -0.006500	  0.046000	  1.017500	   -0.480000	    0.000000	   -0.060000	   21.878906
    0.9789	 -0.007000	  0.044000	  0.977500	    0.290000	    0.220000	    0.040000	   21.875000
    0.9889	  0.007500	  0.045500	  0.997500	   -0.330000	    0.050000	   -0.100000	   21.882813
    0.9989	  0.003000	  0.038500	  0.977000	    0.140000	   -0.160000	    0.070000	   21.886719
    1.0089	 -0.008500	  0.043500	  1.010500	   -0.530000	   -0.110000	   -0.080000	   21.894531
    1.0189	  0.005500	  0.041000	  0.979500	    0.270000	    0.260000	    0.050000	   21.917969
    1.0291	  0.017500	  0.041500	  0.977500	   -0.300000	    0.110000	   -0.080000	   21.906250
    1.0389	 -0.009500	  0.039500	  0.972000	    0.130000	   -0.510000	    0.000000	   21.875000
    1.0489	 -0.018500	  0.045500	  1.020000	   -0.460000	    0.110000	   -0.100000	   21.878906
    1.0589	  0.003500	  0.039500	  0.972000	    0.140000	    0.190000	    0.020000	   21.875000
    1.0689	  0.004500	  0.042500	  0.993500	   -0.340000	   -0.080000	   -0.060000	   21.875000
    1.0789	 -0.011000	  0.037500	  0.971000	    0.020000	   -0.230000	    0.100000	   21.859375
    1.0889	 -0.008500	  0.045000	  1.018500	   -0.600000	   -0.220000	   -0.080000	   21.867188
    1.0989	  0.003500	  0.038000	  0.992000	    0.220000	    0.240000	    0.060000	   21.875000
    1.1091	  0.003000	  0.042000	  0.980500	   -0.490000	    0.050000	   -0.070000	   21.875000
    1.1189	 -0.006000	  0.037000	  0.965000	    0.020000	   -0.290000	    0.170000	   21.878906
    1.1289	 -0.005000	  0.048500	  1.020000	   -0.550000	   -0.140000	   -0.090000	   21.890625
    1.1389	  0.003000	  0.038500	  0.972500	    0.140000	    0.180000	    0.090000	   21.886719
    1.1489	  0.005000	  0.045000	  0.983000	   -0.280000	    0.160000	   -0.110000	   21.871094
    1.1589	 -0.002500	  0.034500	  0.971000	    0.090000	   -0.280000	    0.180000	   21.875000
    1.1689	 -0.010000	  0.047000	  1.017500	   -0.370000	   -0.250000	    0.050000	   21.886719
    1.1789	 -0.001000	  0.038000	  0.995500	    0.000000	   -0.010000	    0.070000	   21.878906
    1.1891	  0.009000	  0.046000	  0.995500	   -0.320000	    0.200000	   -0.140000	   21.871094
    1.1989	  0.000000	  0.033000	  0.959500	    0.070000	   -0.330000	    0.000000	   21.867188
    1.2089	 -0.006500	  0.050500	  1.030000	   -0.500000	   -0.010000	   -0.070000	   21.859375
    1.2189	  0.008000	  0.038500	  0.967500	    0.220000	    0.180000	    0.010000	   21.851563
    1.2289	  0.008000	  0.051500	  0.988000	   -0.410000	   -0.050000	   -0.080000	   21.882813
    1.2389	 -0.006000	  0.032500	  0.969500	    0.110000	   -0.220000	    0.020000	   21.886719
    1.2489	 -0.002500	  0.049500	  1.004000	   -0.440000	   -0.090000	   -0.060000	   21.910156
    1.2589	 -0.001500	  0.034000	  0.991000	    0.170000	   -0.130000	    0.110000	   21.886719
    1.2691	  0.006000	  0.048000	  0.994000	   -0.280000	    0.260000	   -0.070000	   21.875000
    1.2789	 -0.001000	  0.030500	  0.961500	   -0.010000	   -0.390000	    0.110000	   21.878906
    1.2889	 -0.021500	  0.048500	  1.035000	   -0.490000	   -0.230000	   -0.030000	   21.867188
    1.2989	  0.002000	  0.038000	  0.981500	    0.190000	    0.430000	    0.090000	   21.890625
    1.3089	  0.018000	  0.048500	  0.978500	   -0.220000	    0.110000	   -0.170000	   21.863281
    1.3189	 -0.008500	  0.034500	  0.966500	   -0.030000	   -0.350000	    0.120000	   21.867188
    1.3289	 -0.013500	  0.052500	  1.013000	   -0.480000	   -0.040000	   -0.070000	   21.894531
    1.3389	  0.009500	  0.031000	  0.980500	    0.080000	    0.090000	    0.060000	   21.894531
    1.3491	  0.009000	  0.047500	  0.995000	   -0.280000	    0.050000	   -0.090000	   21.921875
    1.3589	 -0.008000	  0.030000	  0.956500	    0.070000	   -0.280000	    0.080000	   21.906250
    1.3689	 -0.006500	  0.054500	  1.023000	   -0.340000	   -0.320000	   -0.030000	   21.890625
    1.3789	  0.005000	  0.033500	  1.002000	   -0.010000	    0.170000	   -0.070000	   21.894531
    1.3889	  0.009500	  0.055500	  0.983000	   -0.220000	    0.300000	   -0.080000	   21.871094
    1.3989	 -0.002000	  0.025000	  0.958000	    0.110000	   -0.250000	    0.080000	   21.863281
    1.4093	 -0.004500	  0.057000	  1.024500	   -0.400000	   -0.170000	   -0.010000	   21.871094
    1.4189	  0.004000	  0.029500	  0.975000	    0.110000	   -0.030000	   -0.010000	   21.875000
    1.4291	  0.005000	  0.056500	  0.993000	   -0.290000	    0.090000	   -0.120000	   21.871094
    1.4389	  0.001000	  0.023000	  0.957500	    0.060000	   -0.150000	    0.010000	   21.875000
    1.4489	 -0.010500	  0.059000	  1.020500	   -0.380000	   -0.230000	   -0.020000	   21.890625
    1.4589	 -0.005500	  0.032000	  0.995000	    0.050000	    0.190000	    0.080000	   21.886719
    1.4689	  0.009500	  0.060500	  0.998500	   -0.380000	    0.300000	   -0.130000	   21.882813
    1.4789	  0.002500	  0.022000	  0.963000	    0.060000	   -0.430000	    0.140000	   21.898438
    1.4889	 -0.007500	  0.059500	  1.017000	   -0.430000	   -0.100000	    0.060000	   21.882813
    1.4989	  0.007500	  0.023000	  0.976500	    0.170000	    0.220000	    0.010000	   21.878906
    1.5091	  0.013500	  0.060000	  0.990000	   -0.310000	    0.220000	   -0.050000	   21.906250
    1.5189	 -0.006000	  0.024000	  0.959000	    0.080000	   -0.360000	    0.130000	   21.906250
    1.5289	 -0.011500	  0.055500	  1.022000	   -0.310000	   -0.130000	   -0.050000	   21.890625
    1.5389	 -0.000500	  0.029500	  0.987000	   -0.050000	    0.050000	    0.120000	   21.890625
    1.5489	  0.003000	  0.060500	  0.999500	   -0.310000	    0.190000	   -0.170000	   21.863281
    1.5589	  0.000500	  0.024000	  0.964500	    0.110000	   -0.150000	    0.000000	   21.855469
    1.5689	 -0.005500	  0.055000	  1.020500	   -0.460000	   -0.130000	    0.050000	   21.890625
    1.5789	 -0.002000	  0.026000	  0.987000	    0.020000	    0.230000	   -0.020000	   21.910156
    1.5891	  0.013000	  0.056000	  0.983000	   -0.210000	    0.300000	    0.000000	   21.878906
    1.5989	  0.002000	  0.025500	  0.963000	   -0.030000	   -0.340000	    0.060000	   21.875000
    1.6089	 -0.010000	  0.059000	  1.016500	   -0.330000	   -0.040000	   -0.050000	   21.855469
    1.6189	  0.004000	  0.028000	  0.972000	    0.180000	    0.220000	   -0.070000	   21.859375
    1.6289	  0.008500	  0.056500	  0.993000	   -0.180000	    0.030000	    0.040000	   21.867188
    1.6389	 -0.005500	  0.026500	  0.967500	    0.080000	   -0.320000	    0.160000	   21.882813
    1.6489	 -0.009500	  0.058500	  1.018000	   -0.470000	   -0.010000	    0.070000	   21.867188
    1.6589	 -0.002000	  0.024500	  0.995500	   -0.060000	    0.170000	   -0.010000	   21.875000
    1.6691	  0.007500	  0.056500	  0.992500	   -0.150000	    0.350000	   -0.150000	   21.875000
    1.6789	  0.003500	  0.023000	  0.956000	   -0.070000	   -0.290000	    0.110000	   21.859375
    1.6889	 -0.009500	  0.063500	  1.023500	   -0.380000	   -0.100000	    0.060000	   21.855469
    1.6989	 -0.000500	  0.028000	  0.975000	   -0.050000	    0.260000	    0.080000	   21.875000
    1.7089	  0.009000	  0.062500	  0.992000	   -0.250000	    0.090000	   -0.140000	   21.871094
    1.7189	  0.002000	  0.020000	  0.958000	   -0.040000	   -0.220000	   -0.040000	   21.867188
    1.7289	 -0.007000	  0.061000	  1.008000	   -0.170000	   -0.250000	    0.070000	   21.871094
    1.7389	 -0.004500	  0.023500	  1.001000	   -0.130000	    0.030000	   -0.080000	   21.886719
    1.7491	  0.015000	  0.059000	  0.994500	   -0.130000	    0.360000	   -0.050000	   21.886719
    1.7589	  0.002000	  0.016500	  0.955500	   -0.080000	   -0.320000	   -0.030000	   21.875000
    1.7689	 -0.019500	  0.062500	  1.028500	   -0.270000	   -0.020000	    0.010000	   21.875000
    1.7789	  0.006000	  0.025000	  0.987000	   -0.100000	    0.180000	    0.010000	   21.875000
    1.7889	  0.017500	  0.064500	  0.988000	   -0.020000	    0.340000	    0.000000	   21.875000
    1.7989	 -0.008000	  0.022000	  0.959000	   -0.040000	   -0.130000	   -0.040000	   21.890625
    1.8089	 -0.008500	  0.061500	  1.002000	   -0.130000	   -0.250000	   -0.020000	   21.902344
    1.8189	  0.001000	  0.025500	  1.008500	   -0.140000	   -0.080000	   -0.010000	   21.906250
    1.8291	  0.005500	  0.057000	  0.985000	   -0.110000	    0.420000	    0.050000	   21.886719
    1.8389	 -0.001500	  0.022500	  0.962000	   -0.130000	   -0.170000	    0.010000	   21.902344
    1.8489	 -0.009500	  0.056000	  1.009500	   -0.240000	   -0.210000	    0.060000	   21.898438
    1.8589	 -0.004500	  0.030500	  1.014000	   -0.310000	    0.200000	   -0.090000	   21.890625
    1.8690	  0.013000	  0.059000	  0.982500	   -0.080000	    0.280000	   -0.040000	   21.886719
    1.8789	  0.006000	  0.021500	  0.962500	   -0.100000	   -0.310000	    0.070000	   21.878906
    1.8889	 -0.014000	  0.058500	  0.992000	   -0.040000	   -0.360000	    0.130000	   21.863281
    1.8989	 -0.007000	  0.032000	  1.008500	   -0.330000	    0.010000	   -0.170000	   21.875000
    1.9091	  0.013000	  0.053000	  0.986000	    0.040000	    0.220000	    0.010000	   21.886719
    1.9189	  0.002000	  0.025000	  0.970000	   -0.030000	   -0.180000	    0.090000	   21.878906
    1.9289	 -0.016500	  0.052000	  0.988000	   -0.200000	   -0.280000	    0.100000	   21.871094
    1.9389	 -0.004500	  0.032000	  1.022500	   -0.380000	   -0.050000	   -0.050000	   21.871094
    1.9489	  0.015000	  0.059000	  0.992500	    0.090000	    0.330000	   -0.040000	   21.878906
    1.9590	  0.000000	  0.026000	  0.974000	   -0.080000	   -0.040000	   -0.110000	   21.886719
    1.9689	 -0.007000	  0.055500	  0.989000	   -0.090000	    0.010000	    0.090000	   21.878906
    1.9789	  0.010000	  0.024500	  0.993000	   -0.240000	    0.020000	   -0.070000	   21.882813
    1.9891	  0.008500	  0.063500	  0.986500	   -0.070000	    0.110000	    0.010000	   21.890625
    1.9989	 -0.001500	  0.024500	  0.964000	   -0.090000	   -0.160000	   -0.030000	   21.859375
    2.0089	 -0.005500	  0.054000	  1.000500	   -0.050000	   -0.180000	    0.090000	   21.875000
    2.0189	 -0.010500	  0.024500	  1.003000	   -0.290000	   -0.010000	   -0.020000	   21.902344
    2.0289	 -0.001500	  0.066500	  0.990500	    0.150000	    0.400000	    0.020000	   21.917969
    2.0389	  0.007500	  0.022000	  0.980000	   -0.180000	   -0.230000	   -0.070000	   21.894531
    2.0489	 -0.007500	  0.056500	  1.004000	   -0.080000	   -0.160000	    0.050000	   21.871094
    2.0590	 -0.007500	  0.020500	  0.989500	   -0.230000	   -0.060000	   -0.070000	   21.890625
    2.0691	  0.012500	  0.063000	  0.984000	    0.070000	    0.270000	    0.090000	   21.902344
    2.0789	  0.004500	  0.023000	  0.967000	   -0.270000	   -0.320000	   -0.120000	   21.859375
    2.0889	 -0.008000	  0.062500	  1.013500	   -0.060000	   -0.030000	   -0.040000	   21.875000
    2.0989	  0.001000	  0.019000	  0.976500	   -0.050000	    0.120000	   -0.100000	   21.875000
    2.1089	  0.000000	  0.066500	  0.992500	    0.100000	    0.020000	    0.100000	   21.859375
    2.1189	 -0.002000	  0.020000	  0.977000	   -0.030000	   -0.090000	   -0.080000	   21.867188
    2.1289	  0.006000	  0.063500	  1.016000	   -0.220000	   -0.140000	    0.140000	   21.878906
    2.1389	 -0.004500	  0.014000	  0.985500	   -0.090000	    0.010000	   -0.050000	   21.898438
    2.1491	 -0.003000	  0.067500	  0.988500	    0.070000	    0.330000	    0.060000	   21.882813
    2.1590	  0.010000	  0.017500	  0.965000	   -0.160000	   -0.290000	    0.010000	   21.878906
    2.1689	  0.000000	  0.070000	  1.027500	   -0.230000	    0.010000	   -0.030000	   21.890625
    2.1789	 -0.011500	  0.020500	  0.966000	   -0.110000	    0.020000	   -0.070000	   21.910156
    2.1889	  0.000500	  0.066500	  0.991000	   -0.050000	    0.240000	   -0.090000	   21.914063
    2.1989	  0.008500	  0.017500	  0.964500	   -0.040000	   -0.350000	    0.040000	   21.886719
    2.2089	 -0.001500	  0.065500	  1.023000	   -0.180000	   -0.180000	   -0.090000	   21.902344
    2.2189	 -0.006500	  0.017000	  0.979000	   -0.050000	   -0.020000	   -0.060000	   21.890625
    2.2291	  0.003500	  0.066000	  1.000000	   -0.070000	    0.300000	   -0.120000	   21.886719
    2.2389	  0.000000	  0.016000	  0.966000	   -0.110000	   -0.320000	    0.190000	   21.882813
    2.2489	 -0.002500	  0.062500	  1.033000	   -0.360000	    0.010000	    0.000000	   21.867188
    2.2590	  0.005500	  0.022000	  0.960500	    0.250000	    0.160000	    0.090000	   21.886719
    2.2689	  0.001500	  0.065000	  0.987500	   -0.170000	    0.060000	   -0.090000	   21.890625
    2.2789	 -0.009500	  0.024000	  0.969500	   -0.060000	   -0.320000	    0.060000	   21.906250
    2.2889	  0.009000	  0.058000	  1.017000	   -0.440000	    0.140000	   -0.170000	   21.882813
    2.2989	 -0.002500	  0.024000	  0.977500	    0.150000	   -0.090000	   -0.010000	   21.867188
    2.3091	 -0.011500	  0.058000	  1.002500	   -0.430000	    0.150000	   -0.070000	   21.878906
    2.3189	  0.004000	  0.027000	  0.965000	    0.070000	   -0.120000	    0.080000	   21.886719
    2.3289	  0.005500	  0.053000	  1.036000	   -0.490000	   -0.020000	   -0.090000	   21.902344
    2.3389	 -0.001500	  0.031000	  0.971500	    0.290000	    0.440000	    0.140000	   21.882813
    2.3489	  0.005000	  0.051500	  0.966000	   -0.270000	   -0.080000	   -0.080000	   21.894531
    2.3589	 -0.006000	  0.033500	  0.986000	    0.060000	   -0.370000	    0.140000	   21.898438
    2.3689	  0.003000	  0.049500	  1.013000	   -0.460000	   -0.070000	   -0.100000	   21.894531
    2.3789	  0.002500	  0.030500	  0.968000	    0.220000	    0.170000	    0.160000	   21.890625
    2.3891	 -0.005000	  0.046500	  0.994000	   -0.410000	    0.080000	   -0.030000	   21.863281
    2.3989	 -0.004000	  0.038500	  0.975000	   -0.060000	   -0.230000	    0.120000	   21.882813
    2.4089	  0.000000	  0.047500	  1.028500	   -0.420000	   -0.010000	   -0.220000	   21.882813
    2.4193	  0.000000	  0.041500	  0.992000	    0.240000	    0.310000	    0.110000	   21.882813
    2.4289	  0.004500	  0.038500	  0.967000	   -0.410000	    0.100000	   -0.170000	   21.890625
    2.4389	 -0.001000	  0.038500	  0.975500	    0.220000	   -0.240000	    0.040000	   21.875000
    2.4489	  0.005500	  0.044000	  1.012500	   -0.330000	   -0.110000	   -0.090000	   21.867188
    2.4590	  0.006500	  0.042000	  0.975000	    0.140000	    0.250000	    0.090000	   21.863281
    2.4692	 -0.000500	  0.039500	  0.970500	   -0.330000	    0.030000	   -0.140000	   21.878906
    2.4789	 -0.008500	  0.040000	  0.985000	    0.070000	   -0.270000	    0.150000	   21.898438
    2.4889	 -0.005000	  0.043500	  1.025000	   -0.400000	   -0.140000	   -0.080000	   21.894531
    2.4989	  0.000000	  0.048500	  0.993500	    0.240000	    0.360000	    0.140000	   21.890625
    2.5089	  0.005000	  0.037500	  0.978500	   -0.360000	    0.200000	   -0.280000	   21.890625
    2.5189	 -0.004500	  0.041000	  0.977000	    0.100000	   -0.180000	    0.140000	   21.882813
    2.5289	  0.001500	  0.035000	  1.014000	   -0.540000	    0.030000	   -0.090000	   21.863281
    2.5389	  0.010500	  0.048500	  0.983000	    0.330000	    0.100000	    0.020000	   21.878906
    2.5492	 -0.001000	  0.038000	  0.968500	   -0.420000	   -0.040000	   -0.110000	   21.882813
    2.5590	 -0.011000	  0.047000	  0.987000	   -0.070000	   -0.340000	    0.140000	   21.902344
    2.5690	  0.005500	  0.035500	  1.010500	   -0.540000	   -0.140000	   -0.070000	   21.875000
    2.5789	  0.003500	  0.053000	  0.990500	    0.300000	    0.150000	    0.090000	   21.878906
    2.5889	 -0.006500	  0.034500	  0.977500	   -0.230000	   -0.080000	   -0.190000	   21.882813
    2.5990	 -0.006000	  0.048500	  0.984000	    0.090000	   -0.100000	    0.110000	   21.882813
    2.6090	 -0.001000	  0.031500	  1.016500	   -0.510000	   -0.200000	   -0.130000	   21.867188
    2.6190	  0.003000	  0.051500	  0.993500	    0.250000	    0.340000	    0.050000	   21.898438
    2.6292	  0.006500	  0.027500	  0.958500	   -0.190000	    0.150000	   -0.210000	   21.882813
    2.6390	 -0.004000	  0.055000	  0.993000	    0.130000	   -0.360000	    0.170000	   21.906250
    2.6490	 -0.004000	  0.033500	  1.007000	   -0.530000	   -0.010000	   -0.020000	   21.894531
    2.6590	  0.006000	  0.058000	  0.984500	    0.230000	    0.240000	    0.070000	   21.875000
    2.6690	  0.007000	  0.031000	  0.977000	   -0.170000	   -0.100000	   -0.180000	   21.871094
    2.6790	 -0.008500	  0.052000	  0.987000	   -0.020000	   -0.140000	    0.120000	   21.871094
    2.6890	 -0.003500	  0.034000	  1.005000	   -0.400000	   -0.130000	   -0.130000	   21.902344
    2.6990	  0.013500	  0.048500	  1.004000	    0.160000	    0.300000	    0.070000	   21.898438
    2.7092	  0.008000	  0.030500	  0.963000	   -0.180000	    0.110000	   -0.130000	   21.886719
    2.7190	 -0.012000	  0.049000	  0.981000	    0.110000	   -0.290000	    0.180000	   21.890625
    2.7290	 -0.008000	  0.040000	  1.017000	   -0.400000	    0.010000	   -0.060000	   21.906250
    2.7390	  0.007000	  0.052500	  0.988000	    0.220000	    0.240000	    0.120000	   21.894531
    2.7490	  0.003500	  0.034500	  0.967500	   -0.240000	   -0.030000	   -0.160000	   21.882813
    2.7590	 -0.008500	  0.044000	  0.980500	    0.100000	   -0.140000	    0.020000	   21.847656
    2.7690	 -0.005500	  0.036500	  1.007500	   -0.480000	   -0.210000	   -0.120000	   21.875000
    2.7790	  0.004000	  0.048000	  1.003500	    0.180000	    0.160000	    0.050000	   21.867188
    2.7892	  0.006000	  0.032000	  0.976000	   -0.310000	    0.280000	   -0.110000	   21.875000
    2.7990	 -0.011000	  0.044500	  0.977000	    0.070000	   -0.340000	    0.030000	   21.902344
    2.8090	 -0.007000	  0.037500	  1.018500	   -0.550000	   -0.090000	   -0.130000	   21.906250
    2.8190	  0.019500	  0.049500	  0.985500	    0.190000	    0.250000	    0.350000	   21.894531
    2.8290	  0.003000	  0.036000	  0.965500	   -0.220000	   -0.160000	   -0.120000	   21.890625
    2.8390	 -0.016500	  0.046000	  0.980500	    0.110000	   -0.210000	    0.050000	   21.875000
    2.8490	  0.001500	  0.037500	  1.000500	   -0.550000	   -0.290000	   -0.040000	   21.914063
    2.8590	  0.005000	  0.048000	  0.999000	    0.300000	    0.020000	    0.010000	   21.917969
    2.8692	 -0.001500	  0.035500	  0.976500	   -0.310000	    0.140000	   -0.040000	   21.878906
    2.8790	 -0.001500	  0.045500	  0.980500	    0.090000	   -0.350000	    0.090000	   21.890625
    2.8890	 -0.006000	  0.036000	  1.020000	   -0.390000	   -0.100000	   -0.070000	   21.894531
    2.8990	  0.007000	  0.055000	  0.998500	    0.250000	    0.340000	    0.050000	   21.910156
    2.9090	  0.013500	  0.033500	  0.962000	   -0.330000	    0.060000	   -0.150000	   21.921875
    2.9190	 -0.005000	  0.046500	  0.982500	    0.150000	   -0.280000	    0.120000	   21.878906
    2.9290	 -0.011000	  0.040500	  0.997000	   -0.350000	   -0.200000	   -0.120000	   21.871094
    2.9390	  0.007500	  0.046500	  0.995000	    0.190000	    0.080000	    0.070000	   21.902344
    2.9492	  0.012500	  0.034000	  0.981500	   -0.260000	    0.050000	   -0.170000	   21.882813
    2.9590	 -0.011500	  0.040000	  0.968000	   -0.070000	   -0.360000	    0.090000	   21.878906
    2.9690	 -0.021500	  0.042500	  1.019500	   -0.420000	   -0.140000	   -0.070000	   21.894531
    2.9790	  0.010000	  0.046500	  1.013000	    0.150000	    0.290000	    0.050000	   21.910156
    2.9890	  0.011500	  0.040000	  0.974000	   -0.260000	    0.120000	   -0.100000	   21.906250
    2.9990	 -0.015000	  0.040500	  0.968500	    0.090000	   -0.270000	    0.100000	   21.902344
    3.0090	 -0.000500	  0.041500	  1.012000	   -0.370000	   -0.020000	   -0.080000	   21.890625
    3.0190	  0.015000	  0.044500	  0.991500	    0.180000	    0.070000	    0.130000	   21.871094
    3.0292	 -0.001500	  0.041000	  0.977000	   -0.280000	    0.130000	   -0.050000	   21.882813
    3.0390	 -0.005000	  0.039000	  0.970500	    0.020000	   -0.150000	    0.060000	   21.882813
    3.0490	 -0.000500	  0.040500	  1.008500	   -0.530000	   -0.270000	   -0.050000	   21.894531
    3.0590	 -0.000500	  0.046000	  1.000500	    0.130000	    0.130000	    0.040000	   21.914063
    3.0690	  0.003500	  0.042500	  0.986000	   -0.250000	    0.070000	    0.000000	   21.875000
    3.0790	 -0.001000	  0.036000	  0.973000	    0.140000	   -0.230000	    0.040000	   21.875000
    3.0890	 -0.009000	  0.043500	  1.013000	   -0.420000	    0.000000	   -0.020000	   21.875000
    3.0990	  0.005500	  0.041000	  0.988500	    0.230000	    0.170000	    0.130000	   21.875000
    3.1092	  0.015000	  0.045500	  0.972000	   -0.330000	   -0.040000	   -0.140000	   21.906250
    3.1190	 -0.009000	  0.041500	  0.978500	    0.050000	   -0.270000	    0.110000	   21.914063
    3.1290	 -0.010500	  0.046500	  1.005500	   -0.440000	   -0.080000	   -0.060000	   21.898438
    3.1390	  0.008000	  0.041500	  0.988000	    0.120000	   -0.060000	    0.080000	   21.890625
    3.1490	  0.006500	  0.045000	  0.991500	   -0.200000	    0.080000	    0.030000	   21.890625
    3.1590	 -0.007500	  0.037500	  0.974000	    0.140000	   -0.250000	    0.100000	   21.890625
    3.1690	 -0.007500	  0.043000	  1.008000	   -0.350000	   -0.140000	   -0.180000	   21.906250
    3.1790	  0.008000	  0.037500	  1.007500	    0.160000	    0.120000	    0.030000	   21.886719
    3.1892	  0.012000	  0.044000	  0.968500	   -0.100000	    0.400000	   -0.110000	   21.890625
    3.1992	 -0.007000	  0.036000	  0.969500	    0.090000	   -0.440000	    0.100000	   21.902344
    3.2090	 -0.011500	  0.047500	  1.015500	   -0.400000	   -0.080000	   -0.080000	   21.867188
    3.2190	  0.004000	  0.039500	  0.986500	    0.020000	    0.190000	    0.020000	   21.875000
    3.2290	  0.005000	  0.044500	  0.980000	   -0.190000	    0.070000	   -0.070000	   21.886719
    3.2390	 -0.005500	  0.037000	  0.974000	   -0.090000	   -0.260000	    0.180000	   21.894531
    3.2490	 -0.008500	  0.046500	  1.003000	   -0.450000	   -0.250000	   -0.020000	   21.894531
    3.2590	  0.006500	  0.039000	  1.010500	    0.040000	    0.220000	    0.010000	   21.882813
    3.2692	  0.009000	  0.044500	  0.982000	   -0.240000	    0.400000	   -0.100000	   21.875000
    3.2790	 -0.005500	  0.035000	  0.966000	   -0.010000	   -0.360000	    0.070000	   21.878906
    3.2890	 -0.003500	  0.046500	  1.016000	   -0.500000	   -0.030000	    0.070000	   21.886719
    3.2990	  0.014500	  0.041000	  0.982000	    0.300000	    0.180000	    0.140000	   21.894531
    3.3090	 -0.002000	  0.050500	  0.977500	   -0.340000	   -0.050000	    0.000000	   21.894531
    3.3190	 -0.011000	  0.036000	  0.977000	    0.090000	   -0.210000	    0.170000	   21.886719
    3.3290	  0.004000	  0.046000	  1.002000	   -0.420000	   -0.130000	   -0.060000	   21.871094
    3.3390	 -0.005000	  0.038500	  1.004500	    0.090000	   -0.110000	    0.130000	   21.867188
    3.3492	 -0.002000	  0.047000	  0.990000	   -0.380000	    0.280000	   -0.150000	   21.890625
    3.3590	  0.005500	  0.034000	  0.970500	   -0.010000	   -0.250000	    0.140000	   21.882813
    3.3690	 -0.010000	  0.045000	  1.022000	   -0.290000	   -0.050000	    0.000000	   21.902344
    3.3790	  0.003500	  0.042000	  0.984500	    0.200000	    0.370000	    0.050000	   21.906250
    3.3890	  0.017500	  0.044500	  0.966000	   -0.320000	    0.120000	   -0.080000	   21.890625
    3.3990	 -0.008500	  0.038000	  0.984000	   -0.010000	   -0.340000	    0.220000	   21.886719
    3.4094	 -0.013000	  0.048500	  1.000000	   -0.470000	   -0.110000	    0.000000	   21.898438
    3.4190	  0.009500	  0.037500	  0.985000	    0.120000	    0.030000	    0.090000	   21.906250
    3.4292	  0.006500	  0.043500	  0.991500	   -0.290000	    0.170000	   -0.230000	   21.898438
    3.4390	 -0.011000	  0.036500	  0.966500	   -0.010000	   -0.410000	    0.100000	   21.914063
    3.4490	 -0.012500	  0.047000	  1.021500	   -0.480000	   -0.280000	   -0.090000	   21.875000
    3.4590	  0.006500	  0.038000	  1.008500	   -0.040000	    0.320000	    0.120000	   21.886719
    3.4690	  0.008000	  0.046000	  0.967000	   -0.260000	    0.240000	   -0.090000	   21.898438
    3.4790	 -0.005500	  0.035000	  0.968000	    0.020000	   -0.260000	    0.120000	   21.906250
    3.4890	 -0.000500	  0.049000	  1.012500	   -0.560000	   -0.110000	   -0.050000	   21.898438
    3.4990	  0.006500	  0.038500	  0.988000	    0.100000	    0.090000	    0.140000	   21.902344
    3.5092	  0.004500	  0.046000	  0.980500	   -0.170000	    0.220000	   -0.160000	   21.890625
    3.5190	 -0.002000	  0.034000	  0.969000	   -0.090000	   -0.300000	    0.170000	   21.894531
    3.5290	 -0.007000	  0.047500	  1.010000	   -0.340000	   -0.280000	    0.010000	   21.890625
    3.5390	  0.001000	  0.040500	  1.004000	    0.090000	    0.220000	    0.040000	   21.878906
    3.5490	  0.005500	  0.047000	  0.985500	   -0.280000	    0.120000	   -0.010000	   21.886719
    3.5590	 -0.009000	  0.032000	  0.966000	    0.100000	   -0.310000	    0.140000	   21.894531
    3.5690	 -0.007000	  0.049000	  1.016500	   -0.400000	   -0.060000	   -0.160000	   21.871094
    3.5790	  0.011000	  0.035500	  0.985500	    0.150000	    0.170000	    0.100000	   21.867188
    3.5892	  0.004500	  0.050500	  0.977000	   -0.300000	    0.140000	   -0.090000	   21.871094
    3.5990	 -0.009500	  0.037000	  0.974000	   -0.010000	   -0.230000	    0.140000	   21.886719
    3.6090	 -0.001000	  0.048000	  1.007500	   -0.380000	   -0.120000	   -0.040000	   21.898438
    3.6190	  0.002500	  0.041500	  0.995500	    0.220000	   -0.030000	    0.040000	   21.902344
    3.6290	 -0.000500	  0.048500	  0.985500	   -0.270000	    0.140000	   -0.210000	   21.886719
    3.6390	  0.001500	  0.034500	  0.974500	    0.080000	   -0.210000	    0.150000	   21.894531
    3.6490	 -0.004500	  0.043000	  1.012000	   -0.370000	   -0.110000	   -0.120000	   21.882813
    3.6591	  0.006000	  0.038000	  0.994500	    0.160000	    0.280000	    0.080000	   21.867188
    3.6692	  0.016500	  0.043000	  0.965500	   -0.360000	    0.120000	   -0.120000	   21.875000
    3.6790	 -0.007000	  0.039000	  0.978500	    0.080000	   -0.480000	    0.170000	   21.878906
    3.6890	 -0.019500	  0.049500	  1.012000	   -0.470000	   -0.030000	   -0.070000	   21.878906
    3.6990	  0.003500	  0.040500	  0.989500	    0.140000	    0.140000	    0.030000	   21.890625
    3.7090	  0.008500	  0.044000	  0.985000	   -0.210000	    0.120000	   -0.150000	   21.914063
    3.7190	 -0.010500	  0.038000	  0.972000	    0.100000	   -0.200000	    0.060000	   21.917969
    3.7290	 -0.011000	  0.046500	  1.007500	   -0.390000	   -0.260000	   -0.040000	   21.921875
    3.7390	  0.010000	  0.034500	  1.017000	    0.060000	    0.160000	    0.040000	   21.917969
    3.7492	  0.009000	  0.047500	  0.976000	   -0.220000	    0.340000	    0.040000	   21.902344
    3.7591	 -0.006500	  0.033000	  0.962000	    0.090000	   -0.360000	    0.020000	   21.898438
    3.7690	 -0.001000	  0.051000	  1.019000	   -0.410000	   -0.050000	   -0.060000	   21.902344
    3.7790	  0.014500	  0.036500	  0.977000	    0.050000	    0.160000	    0.130000	   21.898438
    3.7890	 -0.002000	  0.050500	  0.979000	   -0.130000	    0.040000	   -0.110000	   21.871094
    3.7990	 -0.009500	  0.030000	  0.974500	   -0.030000	   -0.250000	    0.130000	   21.851563
    3.8090	  0.000000	  0.050500	  1.005000	   -0.430000	   -0.100000	   -0.090000	   21.890625
    3.8190	 -0.005500	  0.033000	  1.004500	    0.090000	    0.080000	   -0.050000	   21.910156
    3.8292	  0.003000	  0.052500	  0.994500	   -0.350000	    0.220000	   -0.010000	   21.890625
    3.8390	  0.004500	  0.028000	  0.963000	    0.050000	   -0.180000	    0.090000	   21.890625
    3.8490	 -0.012000	  0.051500	  1.024500	   -0.480000	    0.010000	   -0.060000	   21.906250
    3.8590	  0.008500	  0.035500	  0.978000	    0.160000	    0.320000	    0.020000	   21.906250
    3.8691	  0.014500	  0.052000	  0.977500	   -0.280000	    0.020000	   -0.170000	   21.890625
    3.8790	 -0.014000	  0.033500	  0.979000	    0.070000	   -0.340000	    0.220000	   21.898438
    3.8890	 -0.003500	  0.048500	  0.999500	   -0.540000	    0.060000	   -0.120000	   21.902344
    3.8990	  0.011500	  0.031000	  0.992500	    0.120000	    0.050000	    0.060000	   21.906250
    3.9092	  0.001000	  0.049500	  0.990500	   -0.310000	    0.110000	   -0.170000	   21.898438
    3.9190	 -0.007500	  0.036000	  0.969000	   -0.010000	   -0.270000	    0.040000	   21.914063
    3.9290	 -0.011000	  0.044500	  1.027500	   -0.620000	   -0.290000	   -0.020000	   21.902344
    3.9390	  0.001500	  0.042000	  0.999500	    0.260000	    0.340000	    0.060000	   21.894531
    3.9490	  0.010000	  0.044500	  0.964500	   -0.280000	    0.240000	   -0.080000	   21.898438
    3.9591	 -0.002000	  0.039000	  0.979000	    0.090000	   -0.280000	    0.120000	   21.875000
    3.9690	 -0.004500	  0.048500	  1.001500	   -0.490000	   -0.070000	   -0.130000	   21.906250
    3.9790	  0.003500	  0.037500	  0.989500	    0.150000	    0.120000	    0.120000	   21.917969
    3.9892	  0.007500	  0.042000	  0.984000	   -0.160000	    0.250000	   -0.080000	   21.898438
    3.9990	 -0.006500	  0.038000	  0.968000	    0.000000	   -0.310000	    0.050000	   21.878906
    4.0090	 -0.012000	  0.046000	  1.013500	   -0.470000	   -0.390000	    0.010000	   21.906250
    4.0190	  0.009500	  0.040500	  1.013000	    0.020000	    0.260000	    0.010000	   21.902344
    4.0290	  0.009000	  0.044500	  0.974000	   -0.240000	    0.230000	   -0.190000	   21.914063
    4.0390	 -0.011500	  0.034500	  0.969500	    0.130000	   -0.230000	    0.090000	   21.890625
    4.0490	  0.001500	  0.045500	  1.012500	   -0.400000	   -0.110000	   -0.100000	   21.875000
    4.0591	  0.010000	  0.037500	  0.986500	    0.210000	    0.040000	    0.100000	   21.898438
    4.0693	 -0.007000	  0.047000	  0.981000	   -0.360000	    0.130000	   -0.050000	   21.906250
    4.0790	 -0.004000	  0.036000	  0.974000	    0.060000	   -0.080000	    0.170000	   21.886719
    4.0890	  0.001000	  0.046000	  1.009000	   -0.370000	   -0.070000	    0.020000	   21.878906
    4.0990	 -0.006500	  0.043500	  0.999000	    0.120000	    0.070000	    0.090000	   21.863281
    4.1090	  0.001500	  0.049000	  0.988000	   -0.370000	    0.170000	   -0.060000	   21.906250
    4.1190	  0.004500	  0.031000	  0.972000	    0.150000	   -0.160000	    0.110000	   21.902344
    4.1290	 -0.007500	  0.046000	  1.011500	   -0.420000	   -0.070000	   -0.110000	   21.894531
    4.1390	  0.008500	  0.035500	  0.984500	    0.160000	    0.230000	    0.120000	   21.910156
    4.1492	  0.019500	  0.048000	  0.971000	   -0.350000	    0.060000	   -0.110000	   21.917969
    4.1591	 -0.013000	  0.036500	  0.980000	    0.110000	   -0.390000	    0.110000	   21.890625
    4.1691	 -0.013500	  0.048500	  1.011000	   -0.420000	    0.030000	   -0.040000	   21.875000
    4.1790	  0.007000	  0.036500	  0.988500	    0.110000	    0.200000	    0.100000	   21.875000
    4.1890	  0.001500	  0.047000	  0.990500	   -0.240000	    0.180000	   -0.180000	   21.890625
    4.1990	 -0.011500	  0.039000	  0.970000	   -0.050000	   -0.210000	    0.110000	   21.917969
    4.2090	 -0.003000	  0.044500	  1.014000	   -0.530000	   -0.190000	   -0.180000	   21.894531
    4.2190	  0.008500	  0.037000	  1.005000	    0.050000	    0.270000	    0.100000	   21.894531
    4.2293	  0.006000	  0.044000	  0.966000	   -0.290000	    0.310000	   -0.100000	   21.890625
    4.2390	 -0.006000	  0.036500	  0.972500	    0.050000	   -0.350000	    0.130000	   21.886719
    4.2491	 -0.001500	  0.048000	  1.014000	   -0.460000	   -0.020000	    0.000000	   21.890625
    4.2591	  0.007000	  0.040500	  0.978500	    0.140000	    0.140000	    0.120000	   21.917969
    4.2691	 -0.001000	  0.045000	  0.983000	   -0.200000	   -0.090000	   -0.180000	   21.910156
    4.2790	 -0.002500	  0.035000	  0.973500	    0.230000	   -0.190000	    0.180000	   21.890625
    4.2890	 -0.003500	  0.045000	  1.011500	   -0.370000	   -0.280000	   -0.110000	   21.890625
    4.2990	 -0.001500	  0.039500	  1.008500	    0.220000	    0.100000	    0.040000	   21.886719
    4.3093	  0.007500	  0.045000	  0.979000	   -0.390000	    0.210000	   -0.070000	   21.886719
    4.3190	 -0.003500	  0.037000	  0.972000	    0.110000	   -0.400000	    0.200000	   21.906250
    4.3290	 -0.005000	  0.046000	  1.020500	   -0.530000	   -0.040000	   -0.160000	   21.898438
    4.3391	  0.013000	  0.044000	  0.974500	    0.280000	    0.180000	    0.260000	   21.906250
    4.3490	  0.001000	  0.046000	  0.979000	   -0.280000	   -0.030000	   -0.080000	   21.917969
    4.3590	 -0.008500	  0.039000	  0.981500	    0.080000	   -0.120000	    0.010000	   21.902344
    4.3691	  0.006000	  0.039500	  0.994500	   -0.340000	   -0.060000	   -0.060000	   21.902344
    4.3791	  0.000500	  0.042000	  0.998500	    0.320000	    0.040000	    0.160000	   21.875000
    4.3893	  0.000000	  0.042000	  0.985000	   -0.460000	    0.160000	   -0.140000	   21.875000
    4.3991	 -0.002000	  0.038000	  0.980000	    0.060000	   -0.330000	    0.090000	   21.882813
    4.4094	 -0.011000	  0.037500	  1.022500	   -0.540000	   -0.090000	   -0.020000	   21.906250
    4.4191	  0.003000	  0.052000	  0.989500	    0.130000	    0.340000	    0.090000	   21.902344
    4.4291	  0.013000	  0.039000	  0.961000	   -0.300000	    0.080000	   -0.090000	   21.902344
    4.4391	 -0.008500	  0.045000	  0.990500	   -0.020000	   -0.300000	    0.210000	   21.906250
    4.4491	 -0.006500	  0.041000	  0.997000	   -0.500000	   -0.130000	   -0.120000	   21.898438
    4.4591	  0.009000	  0.042000	  0.988000	    0.200000	    0.120000	    0.120000	   21.902344
    4.4693	  0.005500	  0.039000	  0.984500	   -0.240000	    0.140000	   -0.030000	   21.898438
    4.4791	 -0.008500	  0.042000	  0.975500	   -0.050000	   -0.370000	    0.110000	   21.906250
    4.4891	 -0.006000	  0.041500	  1.018000	   -0.390000	   -0.080000	   -0.140000	   21.890625
    4.4991	  0.011000	  0.045500	  1.003000	    0.170000	    0.190000	    0.080000	   21.902344
    4.5091	  0.001500	  0.041000	  0.967500	   -0.340000	    0.080000	   -0.070000	   21.890625
    4.5191	 -0.008000	  0.038000	  0.973500	    0.100000	   -0.230000	    0.040000	   21.890625
    4.5291	  0.004000	  0.045500	  1.015000	   -0.480000	   -0.180000	   -0.070000	   21.902344
    4.5391	  0.002500	  0.043500	  0.985500	    0.110000	    0.150000	    0.050000	   21.914063
    4.5493	 -0.001000	  0.041000	  0.976500	   -0.280000	    0.160000	   -0.060000	   21.906250
    4.5591	  0.002000	  0.039500	  0.981500	    0.070000	   -0.280000	    0.220000	   21.914063
    4.5691	 -0.003000	  0.043500	  1.012500	   -0.400000	   -0.240000	   -0.130000	   21.878906
    4.5791	 -0.002500	  0.051500	  0.998000	    0.240000	    0.140000	    0.080000	   21.906250
    4.5891	  0.008500	  0.040000	  0.987500	   -0.380000	    0.240000	   -0.250000	   21.914063
    4.5991	  0.000500	  0.040500	  0.973500	    0.140000	   -0.170000	    0.070000	   21.906250
    4.6091	 -0.002500	  0.038000	  1.006000	   -0.430000	   -0.030000	   -0.150000	   21.910156
    4.6191	  0.014000	  0.046000	  0.984000	    0.340000	    0.180000	    0.160000	   21.906250
    4.6293	  0.007500	  0.039000	  0.968500	   -0.370000	   -0.190000	   -0.020000	   21.914063
    4.6391	 -0.015500	  0.043000	  0.989000	    0.020000	   -0.170000	    0.130000	   21.917969
    4.6491	 -0.001500	  0.037500	  1.007000	   -0.480000	    0.180000	   -0.160000	   21.929688
    4.6591	  0.002500	  0.050000	  0.993500	    0.290000	    0.080000	    0.080000	   21.921875
    4.6691	 -0.004500	  0.038500	  0.986000	   -0.460000	    0.060000	   -0.110000	   21.906250
    4.6791	  0.000000	  0.042500	  0.981500	    0.120000	   -0.190000	    0.150000	   21.929688
    4.6891	 -0.001500	  0.033500	  1.012000	   -0.510000	   -0.210000	   -0.100000	   21.894531
    4.6991	  0.003500	  0.048000	  0.993000	    0.270000	    0.420000	    0.160000	   21.863281
    4.7093	  0.014000	  0.033500	  0.958000	   -0.380000	    0.080000	   -0.130000	   21.890625
    4.7191	 -0.005000	  0.045500	  0.992000	    0.020000	   -0.440000	    0.200000	   21.898438
    4.7291	 -0.009000	  0.042500	  1.004000	   -0.360000	   -0.070000	   -0.110000	   21.898438
    4.7391	  0.008000	  0.046500	  0.979000	    0.130000	    0.090000	    0.130000	   21.902344
    4.7491	  0.003000	  0.035500	  0.985000	   -0.260000	   -0.070000	   -0.040000	   21.925781
    4.7591	 -0.011500	  0.043500	  0.979500	    0.150000	   -0.110000	    0.170000	   21.921875
    4.7691	 -0.006500	  0.040000	  1.013000	   -0.420000	   -0.200000	   -0.110000	   21.894531
    4.7791	  0.007500	  0.045000	  1.011500	    0.290000	    0.170000	    0.090000	   21.910156
    4.7893	  0.006000	  0.038500	  0.966500	   -0.260000	    0.310000	   -0.130000	   21.902344
    4.7991	 -0.005000	  0.042500	  0.977000	    0.080000	   -0.400000	    0.170000	   21.890625
    4.8091	  0.005000	  0.042500	  1.018000	   -0.370000	    0.070000	    0.000000	   21.917969
    4.8191	  0.009500	  0.050000	  0.977000	    0.320000	    0.240000	    0.150000	   21.921875
    4.8291	 -0.003500	  0.041500	  0.976000	   -0.350000	   -0.030000	   -0.190000	   21.886719
    4.8391	 -0.002000	  0.041000	  0.986000	    0.140000	   -0.100000	    0.170000	   21.878906
    4.8491	  0.001500	  0.039000	  1.000500	   -0.590000	   -0.240000	   -0.090000	   21.890625
    4.8591	 -0.004000	  0.048500	  0.998500	    0.310000	    0.260000	    0.010000	   21.910156
    4.8693	  0.007000	  0.035000	  0.984500	   -0.440000	    0.150000	   -0.100000	   21.886719
    4.8791	 -0.004000	  0.043000	  0.981500	    0.010000	   -0.370000	    0.110000	   21.898438
    4.8891	 -0.016000	  0.037000	  1.016500	   -0.420000	    0.000000	   -0.120000	   21.894531
    4.8991	  0.009500	  0.050500	  0.982000	    0.230000	    0.230000	    0.170000	   21.875000
    4.9091	  0.009000	  0.036000	  0.966000	   -0.370000	   -0.070000	    0.070000	   21.878906
    4.9191	 -0.017000	  0.048500	  0.992000	    0.090000	   -0.290000	    0.080000	   21.894531
    4.9291	 -0.000500	  0.034000	  0.995500	   -0.370000	   -0.080000	   -0.080000	   21.898438
    4.9391	  0.009000	  0.048500	  0.994000	    0.210000	    0.140000	    0.020000	   21.894531
    4.9493	 -0.001500	  0.035000	  0.981500	   -0.300000	   -0.150000	    0.010000	   21.890625
    4.9591	 -0.005000	  0.046500	  0.985000	   -0.070000	   -0.210000	    0.110000	   21.910156
    4.9691	  0.000000	  0.034000	  1.016500	   -0.380000	   -0.010000	   -0.020000	   21.925781
    4.9791	  0.011000	  0.052000	  0.989500	    0.290000	    0.310000	    0.010000	   21.906250
    4.9891	  0.003500	  0.033500	  0.964000	   -0.350000	   -0.030000	   -0.080000	   21.917969
    4.9991	 -0.004500	  0.047000	  0.987000	    0.040000	   -0.230000	    0.150000	   21.917969
    5.0091	 -0.003000	  0.038500	  1.003000	   -0.300000	   -0.060000	   -0.130000	   21.914063
    5.0191	 -0.001000	  0.048000	  0.986500	    0.300000	    0.230000	    0.060000	   21.917969
    5.0293	  0.003000	  0.032500	  0.977000	   -0.360000	    0.120000	   -0.050000	   21.898438
    5.0391	 -0.006500	  0.046500	  0.985000	    0.050000	   -0.330000	    0.210000	   21.902344
    5.0491	 -0.009000	  0.039500	  1.015500	   -0.470000	   -0.090000	   -0.090000	   21.894531
    5.0591	  0.008500	  0.053500	  1.002000	    0.150000	    0.260000	    0.070000	   21.906250
    5.0691	  0.008500	  0.032000	  0.971000	   -0.350000	    0.110000	   -0.120000	   21.914063
    5.0791	 -0.007500	  0.048000	  0.981500	    0.150000	   -0.180000	    0.050000	   21.914063
    5.0891	  0.006000	  0.031000	  1.001500	   -0.440000	   -0.070000	   -0.110000	   21.906250
    5.0991	  0.013000	  0.052000	  0.985500	    0.250000	    0.070000	    0.130000	   21.914063
    5.1093	 -0.003500	  0.033500	  0.967000	   -0.180000	   -0.090000	   -0.110000	   21.890625
    5.1191	 -0.007500	  0.047000	  0.993500	   -0.030000	   -0.340000	    0.070000	   21.902344
    5.1291	 -0.001500	  0.033000	  1.010000	   -0.360000	   -0.170000	   -0.100000	   21.890625
    5.1391	 -0.008000	  0.059500	  0.997000	    0.200000	    0.150000	    0.070000	   21.894531
    5.1491	  0.002500	  0.031000	  0.982000	   -0.280000	    0.050000	   -0.100000	   21.914063
    5.1591	  0.004500	  0.047500	  0.988000	   -0.010000	   -0.170000	    0.150000	   21.910156
    5.1691	 -0.007500	  0.029000	  1.002500	   -0.440000	   -0.100000	   -0.030000	   21.921875
    5.1791	  0.011000	  0.053500	  0.988000	    0.320000	    0.560000	    0.000000	   21.925781
    5.1893	  0.017000	  0.031500	  0.959000	   -0.340000	   -0.190000	   -0.120000	   21.902344
    5.1991	 -0.015000	  0.052500	  0.997000	   -0.060000	   -0.430000	    0.160000	   21.894531
    5.2091	 -0.004000	  0.035000	  1.000000	   -0.400000	    0.080000	   -0.030000	   21.871094
    5.2191	  0.014500	  0.052500	  0.988000	    0.190000	    0.170000	    0.050000	   21.898438
    5.2291	 -0.005000	  0.029000	  0.983500	   -0.230000	   -0.040000	   -0.060000	   21.906250
    5.2391	 -0.015000	  0.051000	  0.983500	   -0.030000	   -0.130000	    0.230000	   21.910156
    5.2491	  0.000000	  0.029500	  1.014000	   -0.520000	   -0.200000	   -0.060000	   21.894531
    5.2591	  0.006000	  0.053500	  1.002000	    0.290000	    0.300000	    0.140000	   21.882813
    5.2693	  0.001500	  0.026500	  0.953500	   -0.340000	    0.170000	   -0.230000	   21.917969
    5.2791	 -0.003500	  0.054500	  0.996000	    0.020000	   -0.270000	    0.170000	   21.898438
    5.2891	  0.003500	  0.033500	  1.005500	   -0.450000	   -0.010000	   -0.090000	   21.910156
    5.2991	  0.001500	  0.061000	  0.982500	    0.190000	    0.150000	    0.130000	   21.949219
    5.3091	  0.002500	  0.028000	  0.971500	   -0.220000	    0.020000	   -0.140000	   21.917969
    5.3191	  0.000000	  0.051000	  0.991500	    0.020000	   -0.240000	    0.090000	   21.906250
    5.3291	 -0.006000	  0.030000	  1.002000	   -0.420000	   -0.260000	   -0.010000	   21.910156
    5.3391	  0.006500	  0.057000	  1.004000	    0.240000	    0.470000	    0.050000	   21.894531
    5.3493	  0.011500	  0.024500	  0.969500	   -0.350000	    0.000000	   -0.050000	   21.886719
    5.3591	 -0.011500	  0.052500	  0.988500	    0.000000	   -0.350000	    0.130000	   21.878906
    5.3691	 -0.004000	  0.030000	  1.007000	   -0.380000	   -0.010000	   -0.160000	   21.886719
    5.3791	  0.013500	  0.060000	  0.986000	    0.240000	    0.160000	    0.010000	   21.886719
    5.3891	 -0.003500	  0.031500	  0.963500	   -0.230000	   -0.100000	   -0.030000	   21.882813
    5.3991	 -0.008500	  0.051000	  0.991500	    0.010000	   -0.090000	    0.080000	   21.894531
    5.4091	  0.006000	  0.027000	  0.999500	   -0.440000	   -0.240000	   -0.030000	   21.906250
    5.4195	 -0.001000	  0.057500	  1.000000	    0.210000	    0.190000	    0.060000	   21.910156
    5.4293	  0.000500	  0.026000	  0.974500	   -0.230000	    0.100000	   -0.100000	   21.890625
    5.4391	  0.000500	  0.048000	  0.995500	   -0.090000	   -0.290000	    0.200000	   21.890625
    5.4491	 -0.004500	  0.027500	  1.010500	   -0.320000	    0.090000	   -0.150000	   21.929688
    5.4591	  0.012000	  0.060000	  0.980000	    0.130000	    0.340000	    0.050000	   21.929688
    5.4691	  0.008000	  0.027000	  0.961500	   -0.350000	   -0.200000	   -0.190000	   21.925781
    5.4791	 -0.011500	  0.055000	  0.995500	    0.110000	   -0.190000	    0.170000	   21.910156
    5.4891	 -0.005500	  0.032000	  0.998000	   -0.420000	   -0.080000	   -0.050000	   21.914063
    5.4991	  0.003000	  0.053500	  0.989000	    0.250000	    0.210000	    0.070000	   21.898438
    5.5093	 -0.000500	  0.030500	  0.980000	   -0.250000	   -0.040000	   -0.140000	   21.906250
    5.5191	 -0.009000	  0.050500	  0.992500	    0.060000	   -0.230000	    0.140000	   21.898438
    5.5291	 -0.002500	  0.034000	  1.015500	   -0.390000	    0.020000	   -0.070000	   21.925781
    5.5391	  0.012000	  0.060000	  0.996500	    0.210000	    0.290000	    0.110000	   21.921875
    5.5491	  0.007000	  0.027000	  0.959500	   -0.420000	   -0.100000	   -0.160000	   21.925781
    5.5592	 -0.003500	  0.050000	  0.990500	    0.130000	   -0.170000	    0.230000	   21.929688
    5.5691	  0.004000	  0.031500	  1.000000	   -0.440000	   -0.050000	   -0.110000	   21.917969
    5.5791	  0.005000	  0.059000	  0.984000	    0.220000	    0.280000	    0.080000	   21.921875
    5.5893	  0.001500	  0.026500	  0.968500	   -0.220000	    0.080000	   -0.120000	   21.921875
    5.5991	 -0.004500	  0.047000	  0.996500	    0.050000	   -0.230000	    0.130000	   21.898438
    5.6091	 -0.011500	  0.033000	  1.010000	   -0.490000	   -0.110000	   -0.060000	   21.898438
    5.6191	 -0.000500	  0.062500	  1.003000	    0.240000	    0.280000	    0.080000	   21.910156
    5.6291	  0.007500	  0.024000	  0.973000	   -0.280000	    0.120000	   -0.120000	   21.914063
    5.6391	 -0.008500	  0.054000	  0.989500	    0.000000	   -0.130000	    0.160000	   21.906250
    5.6491	 -0.003500	  0.025500	  0.998500	   -0.490000	   -0.100000	   -0.140000	   21.925781
    5.6592	  0.015000	  0.059500	  0.992000	    0.270000	    0.300000	    0.210000	   21.906250
    5.6693	  0.002500	  0.027500	  0.960000	   -0.210000	   -0.180000	   -0.010000	   21.914063
    5.6791	 -0.010000	  0.053000	  0.998000	   -0.040000	   -0.270000	    0.130000	   21.906250
    5.6891	  0.004000	  0.028000	  0.999500	   -0.420000	   -0.120000	   -0.150000	   21.914063
    5.6991	  0.004500	  0.061500	  0.992500	    0.090000	    0.050000	    0.090000	   21.929688
    5.7091	 -0.006000	  0.026000	  0.981500	   -0.340000	   -0.090000	   -0.030000	   21.921875
    5.7191	  0.000000	  0.049500	  0.989500	    0.090000	   -0.050000	    0.040000	   21.917969
    5.7291	 -0.004000	  0.026500	  1.007500	   -0.410000	   -0.190000	   -0.100000	   21.921875
    5.7391	  0.003000	  0.059000	  0.991500	    0.200000	    0.270000	    0.100000	   21.890625
    5.7493	  0.014000	  0.025000	  0.956500	   -0.310000	   -0.080000	   -0.070000	   21.925781
    5.7592	 -0.006000	  0.055500	  1.002000	   -0.120000	   -0.400000	    0.090000	   21.921875
    5.7691	 -0.008500	  0.034000	  1.000500	   -0.280000	    0.000000	   -0.090000	   21.910156
    5.7791	  0.010500	  0.059500	  0.983500	    0.160000	    0.090000	   -0.010000	   21.921875
    5.7891	  0.006500	  0.026500	  0.979000	   -0.190000	   -0.050000	   -0.130000	   21.917969
    5.7991	 -0.009000	  0.051000	  0.989500	   -0.010000	   -0.150000	    0.110000	   21.898438
    5.8091	 -0.005000	  0.030000	  1.005500	   -0.440000	   -0.090000	   -0.060000	   21.894531
    5.8191	  0.013500	  0.055000	  1.001000	    0.120000	    0.220000	    0.110000	   21.921875
    5.8293	  0.005000	  0.025500	  0.964500	   -0.280000	   -0.020000	   -0.140000	   21.929688
    5.8391	 -0.009000	  0.049000	  0.989500	   -0.090000	   -0.390000	    0.110000	   21.917969
    5.8491	  0.001500	  0.035000	  1.008500	   -0.420000	   -0.020000	   -0.110000	   21.906250
    5.8591	  0.003000	  0.059500	  0.984500	    0.140000	    0.170000	    0.100000	   21.921875
    5.8692	 -0.004500	  0.032000	  0.970000	   -0.180000	   -0.040000	   -0.150000	   21.921875
    5.8791	  0.001500	  0.045500	  0.988500	    0.080000	   -0.210000	    0.010000	   21.937500
    5.8891	 -0.004000	  0.033000	  1.007500	   -0.290000	   -0.080000	   -0.040000	   21.917969
    5.8991	 -0.003500	  0.055500	  0.998500	    0.030000	    0.120000	    0.150000	   21.910156
    5.9093	  0.012500	  0.027000	  0.977500	   -0.300000	    0.220000	   -0.090000	   21.886719
    5.9191	 -0.002000	  0.049000	  0.991000	   -0.010000	   -0.260000	    0.040000	   21.878906
    5.9291	 -0.006500	  0.031500	  1.003000	   -0.330000	    0.040000	   -0.130000	   21.941406
    5.9391	  0.019000	  0.060000	  0.980500	    0.370000	    0.390000	    0.230000	   21.933594
    5.9491	  0.002000	  0.027500	  0.970000	   -0.330000	   -0.350000	    0.030000	   21.910156
    5.9592	 -0.017500	  0.055000	  0.996500	    0.030000	   -0.200000	    0.080000	   21.929688
    5.9691	  0.002500	  0.025000	  0.991500	   -0.480000	   -0.090000	   -0.070000	   21.917969
    5.9791	  0.000500	  0.059500	  1.002000	    0.210000	    0.070000	    0.150000	   21.878906
    5.9893	 -0.006000	  0.025500	  0.975500	   -0.180000	    0.020000	   -0.140000	   21.867188
    5.9991	  0.000500	  0.054500	  0.998000	   -0.110000	   -0.270000	    0.110000	   21.890625
    6.0091	 -0.001000	  0.026500	  1.013000	   -0.420000	   -0.010000	   -0.090000	   21.906250
    6.0191	  0.007000	  0.067500	  0.990500	    0.280000	    0.570000	    0.060000	   21.914063
    6.0291	  0.012000	  0.022000	  0.955500	   -0.340000	   -0.040000	   -0.140000	   21.921875
    6.0391	  0.001000	  0.058500	  1.005500	   -0.050000	   -0.220000	    0.110000	   21.929688
    6.0491	 -0.002000	  0.026500	  0.987000	   -0.420000	    0.000000	   -0.090000	   21.917969
    6.0592	  0.004500	  0.060000	  0.983000	    0.320000	    0.310000	    0.050000	   21.886719
    6.0694	  0.005000	  0.021000	  0.975500	   -0.180000	   -0.100000	   -0.030000	   21.910156
    6.0791	 -0.011000	  0.054500	  0.998000	   -0.180000	   -0.290000	    0.020000	   21.925781
    6.0892	 -0.016500	  0.030500	  1.008500	   -0.470000	   -0.120000	   -0.060000	   21.921875
    6.0991	  0.006500	  0.062000	  1.006000	    0.160000	    0.460000	    0.090000	   21.929688
    6.1091	  0.005000	  0.021000	  0.964000	   -0.340000	   -0.090000	   -0.060000	   21.910156
    6.1191	 -0.009000	  0.056000	  0.987500	    0.020000	   -0.270000	    0.040000	   21.878906
    6.1292	  0.005000	  0.027000	  0.997000	   -0.210000	    0.000000	    0.010000	   21.875000
    6.1392	  0.007500	  0.060500	  0.990000	    0.170000	    0.250000	    0.060000	   21.890625
    6.1494	 -0.003500	  0.027000	  0.960500	   -0.160000	    0.030000	   -0.040000	   21.921875
    6.1592	  0.000500	  0.050500	  0.999000	   -0.160000	   -0.300000	    0.030000	   21.898438
    6.1692	  0.002000	  0.030000	  1.006500	   -0.290000	   -0.100000	    0.000000	   21.906250
    6.1791	 -0.000500	  0.065500	  0.987500	    0.200000	    0.280000	   -0.020000	   21.914063
    6.1892	  0.002500	  0.022500	  0.982000	   -0.210000	   -0.010000	    0.000000	   21.914063
    6.1992	 -0.000500	  0.052500	  0.998500	   -0.040000	    0.030000	    0.070000	   21.925781
    6.2092	 -0.008500	  0.026500	  0.996500	   -0.430000	   -0.120000	   -0.100000	   21.945313
    6.2192	  0.007000	  0.059500	  0.989500	    0.200000	    0.340000	    0.000000	   21.917969
    6.2294	  0.010000	  0.022500	  0.962500	   -0.300000	   -0.140000	   -0.010000	   21.917969
    6.2392	 -0.010500	  0.058500	  0.999500	   -0.080000	   -0.220000	    0.150000	   21.917969
    6.2492	 -0.003500	  0.028000	  0.997500	   -0.350000	    0.010000	   -0.170000	   21.921875
    6.2592	  0.012000	  0.063500	  0.990000	    0.210000	    0.200000	    0.100000	   21.910156
    6.2692	  0.000000	  0.023500	  0.973500	   -0.230000	   -0.160000	   -0.070000	   21.925781
    6.2792	 -0.008500	  0.055000	  1.002000	   -0.050000	   -0.270000	    0.120000	   21.914063
    6.2892	  0.002000	  0.025000	  1.004000	   -0.350000	   -0.040000	   -0.150000	   21.906250
    6.2992	  0.012000	  0.059500	  0.991500	    0.190000	    0.390000	    0.030000	   21.917969
    6.3094	  0.005000	  0.020500	  0.961500	   -0.310000	   -0.050000	   -0.040000	   21.933594
    6.3192	 -0.005500	  0.055000	  1.000000	   -0.180000	   -0.430000	    0.110000	   21.929688
    6.3292	 -0.008000	  0.032500	  1.000000	   -0.430000	    0.010000	   -0.050000	   21.917969
    6.3392	 -0.002500	  0.062000	  0.991500	    0.190000	    0.240000	    0.090000	   21.917969
    6.3492	  0.003000	  0.024500	  0.967500	   -0.220000	   -0.150000	   -0.100000	   21.929688
    6.3592	 -0.006500	  0.051500	  0.992500	   -0.050000	   -0.400000	    0.060000	   21.937500
    6.3692	 -0.011500	  0.029500	  1.006500	   -0.390000	   -0.050000	   -0.110000	   21.882813
    6.3792	  0.010000	  0.057000	  1.004000	    0.250000	    0.400000	    0.100000	   21.933594
    6.3894	  0.009500	  0.021500	  0.966500	   -0.250000	   -0.010000	   -0.030000	   21.933594
    6.3992	 -0.011500	  0.055500	  0.993500	   -0.040000	   -0.210000	    0.220000	   21.921875
    6.4092	  0.005000	  0.028500	  1.000000	   -0.400000	    0.100000	   -0.020000	   21.937500
    6.4195	  0.016500	  0.064000	  0.985000	    0.090000	    0.110000	    0.060000	   21.925781
    6.4292	 -0.011000	  0.024000	  0.963500	   -0.240000	   -0.110000	   -0.110000	   21.898438
    6.4392	 -0.006000	  0.053500	  0.997500	   -0.150000	   -0.250000	    0.080000	   21.906250
    6.4492	  0.005500	  0.024500	  0.997000	   -0.300000	   -0.230000	   -0.080000	   21.914063
    6.4592	 -0.010000	  0.062500	  1.001500	    0.100000	    0.320000	    0.060000	   21.929688
    6.4694	 -0.000500	  0.022000	  0.974000	   -0.270000	    0.030000	   -0.050000	   21.921875
    6.4792	  0.005000	  0.054500	  1.002000	   -0.140000	   -0.280000	    0.090000	   21.890625
    6.4892	 -0.008000	  0.029000	  1.004500	   -0.260000	   -0.080000	   -0.110000	   21.898438
    6.4992	  0.012000	  0.064000	  0.981500	    0.040000	    0.350000	   -0.020000	   21.917969
    6.5092	  0.018000	  0.025000	  0.957000	   -0.300000	   -0.330000	   -0.150000	   21.925781
    6.5192	 -0.011500	  0.058000	  1.004000	   -0.020000	   -0.310000	    0.070000	   21.910156
    6.5292	 -0.009000	  0.030000	  0.991000	   -0.300000	    0.040000	   -0.120000	   21.917969
    6.5392	  0.014000	  0.053000	  0.986000	    0.120000	    0.160000	    0.000000	   21.925781
    6.5494	  0.003500	  0.025500	  0.981000	   -0.170000	   -0.140000	   -0.060000	   21.925781
    6.5592	 -0.019000	  0.053000	  0.993000	   -0.160000	   -0.360000	    0.210000	   21.917969
    6.5692	 -0.009000	  0.031500	  1.015500	   -0.430000	    0.010000	   -0.150000	   21.914063
    6.5792	  0.015000	  0.058500	  1.001000	    0.220000	    0.380000	   -0.040000	   21.902344
    6.5892	  0.003000	  0.023500	  0.953000	   -0.140000	    0.060000	   -0.090000	   21.906250
    6.5992	 -0.010500	  0.054000	  0.990500	   -0.020000	   -0.090000	    0.010000	   21.929688
    6.6092	  0.004500	  0.032500	  1.006500	   -0.360000	   -0.040000	    0.030000	   21.921875
    6.6192	  0.003500	  0.056500	  0.987000	    0.090000	    0.110000	    0.070000	   21.941406
    6.6294	 -0.002000	  0.025000	  0.965000	   -0.240000	    0.020000	   -0.020000	   21.906250
    6.6392	 -0.002000	  0.049500	  0.993000	    0.060000	   -0.250000	   -0.010000	   21.906250
    6.6492	 -0.005500	  0.032500	  1.013000	   -0.380000	   -0.130000	   -0.010000	   21.914063
    6.6592	  0.005500	  0.060000	  0.997000	    0.180000	    0.280000	    0.060000	   21.914063
    6.6692	  0.005500	  0.022500	  0.970500	   -0.300000	   -0.020000	   -0.090000	   21.917969
    6.6792	 -0.009500	  0.055500	  0.997500	    0.030000	   -0.190000	    0.150000	   21.921875
    6.6892	  0.001000	  0.025500	  0.996000	   -0.330000	    0.110000	   -0.090000	   21.914063
    6.6992	  0.012500	  0.059500	  0.992000	    0.060000	    0.190000	    0.030000	   21.917969
    6.7094	 -0.002500	  0.025500	  0.963000	   -0.220000	   -0.070000	   -0.080000	   21.929688
    6.7192	 -0.006500	  0.058500	  0.997500	   -0.100000	   -0.260000	    0.050000	   21.945313
    6.7292	  0.001500	  0.025500	  1.001000	   -0.450000	   -0.130000	   -0.050000	   21.925781
    6.7392	  0.001000	  0.066500	  1.000000	    0.120000	    0.190000	    0.040000	   21.925781
    6.7492	  0.001000	  0.022500	  0.971500	   -0.260000	    0.010000	   -0.120000	   21.914063
    6.7592	  0.000000	  0.054000	  1.000000	   -0.030000	   -0.090000	    0.160000	   21.925781
    6.7692	 -0.005500	  0.021500	  1.000500	   -0.350000	    0.060000	   -0.110000	   21.937500
    6.7792	  0.014000	  0.062000	  0.985500	    0.250000	    0.530000	   -0.030000	   21.933594
    6.7894	  0.015000	  0.020000	  0.955500	   -0.370000	   -0.090000	   -0.050000	   21.925781
    6.7992	 -0.015500	  0.061500	  1.011000	   -0.100000	   -0.390000	    0.070000	   21.921875
    6.8092	 -0.011500	  0.031000	  0.995500	   -0.430000	    0.010000	   -0.050000	   21.921875
    6.8192	  0.012000	  0.057500	  0.989500	    0.080000	    0.150000	    0.100000	   21.921875
    6.8292	  0.002500	  0.025000	  0.973000	   -0.240000	   -0.120000	   -0.010000	   21.921875
    6.8392	 -0.016500	  0.054500	  0.990000	   -0.060000	   -0.060000	    0.100000	   21.933594
    6.8492	 -0.005500	  0.028500	  1.012500	   -0.350000	   -0.030000	   -0.080000	   21.929688
    6.8592	  0.016000	  0.053500	  1.001500	    0.220000	    0.370000	   -0.030000	   21.906250
    6.8694	  0.002000	  0.024500	  0.957500	   -0.160000	    0.110000	    0.040000	   21.894531
    6.8792	 -0.008500	  0.055000	  0.994500	   -0.130000	   -0.250000	    0.040000	   21.906250
    6.8892	  0.012500	  0.031500	  1.002500	   -0.400000	   -0.020000	    0.020000	   21.894531
    6.8992	  0.009500	  0.059000	  0.982500	    0.160000	    0.150000	    0.140000	   21.917969
    6.9092	 -0.010500	  0.027500	  0.966500	   -0.150000	   -0.180000	   -0.120000	   21.917969
    6.9192	 -0.002000	  0.051500	  0.995500	   -0.040000	   -0.120000	    0.110000	   21.921875
    6.9292	 -0.004500	  0.028000	  1.008000	   -0.380000	   -0.250000	   -0.130000	   21.917969
    6.9392	 -0.008500	  0.060000	  1.001500	    0.050000	    0.230000	    0.080000	   21.925781
    6.9494	  0.008500	  0.021500	  0.973500	   -0.360000	    0.030000	   -0.040000	   21.914063
    6.9592	 -0.001500	  0.056000	  1.001000	    0.000000	   -0.320000	    0.220000	   21.925781
    6.9692	 -0.007500	  0.027000	  0.998500	   -0.260000	    0.050000	   -0.110000	   21.910156
    6.9792	  0.019500	  0.064000	  0.980500	    0.160000	    0.290000	    0.020000	   21.921875
    6.9892	  0.008000	  0.024500	  0.965000	   -0.230000	   -0.240000	   -0.170000	   21.898438
    6.9992	 -0.015000	  0.060000	  1.001500	    0.020000	   -0.050000	   -0.020000	   21.917969
    7.0092	  0.004500	  0.020500	  0.989500	   -0.330000	    0.060000	   -0.110000	   21.933594
    7.0192	  0.012500	  0.059500	  0.996000	    0.240000	    0.360000	   -0.020000	   21.933594
    7.0294	 -0.003000	  0.022500	  0.971000	   -0.150000	   -0.030000	   -0.010000	   21.925781
    7.0392	 -0.010500	  0.059000	  1.007500	   -0.190000	   -0.280000	    0.010000	   21.929688
    7.0492	 -0.002500	  0.025000	  1.011000	   -0.260000	    0.140000	   -0.080000	   21.929688
    7.0592	  0.009500	  0.064000	  0.991500	    0.090000	    0.350000	   -0.020000	   21.929688
    7.0692	  0.005500	  0.019500	  0.954500	   -0.240000	   -0.130000	    0.020000	   21.890625
    7.0792	 -0.005000	  0.060500	  1.000500	   -0.040000	   -0.050000	    0.080000	   21.878906
    7.0892	 -0.004500	  0.028000	  0.996500	   -0.400000	   -0.130000	   -0.110000	   21.902344
    7.0992	  0.006000	  0.057500	  0.987500	    0.090000	    0.220000	    0.010000	   21.906250
    7.1094	  0.003500	  0.024000	  0.968000	    0.000000	   -0.030000	   -0.040000	   21.925781
    7.1192	 -0.010500	  0.054000	  0.998000	   -0.130000	   -0.360000	    0.100000	   21.929688
    7.1292	 -0.006500	  0.029500	  1.011500	   -0.410000	   -0.030000	    0.000000	   21.925781
    7.1392	  0.016500	  0.060000	  0.995500	    0.160000	    0.440000	   -0.040000	   21.917969
    7.1492	 -0.002500	  0.020500	  0.965500	   -0.240000	   -0.050000	   -0.070000	   21.933594
    7.1592	 -0.013500	  0.058000	  0.994500	   -0.190000	   -0.080000	    0.190000	   21.921875
    7.1692	  0.010000	  0.026000	  0.996000	   -0.310000	   -0.120000	   -0.050000	   21.921875
    7.1792	  0.003500	  0.061500	  0.993500	   -0.020000	    0.120000	   -0.010000	   21.917969
    7.1894	 -0.010000	  0.026000	  0.959500	   -0.180000	   -0.030000	    0.050000	   21.921875
    7.1992	  0.004000	  0.055500	  1.001000	   -0.090000	   -0.320000	    0.160000	   21.906250
    7.2092	 -0.001000	  0.026500	  1.007000	   -0.430000	   -0.140000	   -0.050000	   21.929688
    7.2192	 -0.005500	  0.069000	  0.991500	    0.000000	    0.300000	    0.070000	   21.929688
    7.2292	  0.009500	  0.020500	  0.973000	   -0.230000	   -0.070000	   -0.050000	   21.933594
    7.2392	  0.001500	  0.056000	  1.004500	   -0.110000	   -0.040000	    0.110000	   21.933594
    7.2492	 -0.007000	  0.023000	  0.991500	   -0.190000	   -0.030000	   -0.110000	   21.929688
    7.2592	  0.021000	  0.060000	  0.980500	    0.050000	    0.320000	    0.050000	   21.921875
    7.2694	  0.011500	  0.022000	  0.963500	   -0.240000	   -0.320000	   -0.060000	   21.906250
    7.2792	 -0.022500	  0.060000	  1.005000	   -0.180000	   -0.190000	    0.140000	   21.894531
    7.2892	 -0.007000	  0.027500	  0.995000	   -0.280000	    0.010000	   -0.090000	   21.929688
    7.2992	  0.013000	  0.058000	  0.996000	    0.120000	    0.240000	    0.120000	   21.933594
    7.3092	 -0.006500	  0.025500	  0.970000	   -0.120000	   -0.120000	    0.050000	   21.929688
    7.3192	 -0.014500	  0.055500	  0.997000	   -0.170000	   -0.280000	    0.130000	   21.921875
    7.3292	  0.003000	  0.025000	  1.013000	   -0.230000	   -0.010000	   -0.040000	   21.933594
    7.3392	  0.013500	  0.057500	  0.989500	    0.240000	    0.450000	    0.080000	   21.937500
    7.3494	 -0.000500	  0.022000	  0.953500	   -0.350000	   -0.140000	   -0.120000	   21.937500
    7.3592	 -0.006000	  0.058500	  1.005500	   -0.210000	   -0.240000	    0.140000	   21.925781
    7.3692	  0.007500	  0.031000	  0.997000	   -0.210000	    0.080000	   -0.130000	   21.914063
    7.3792	  0.005000	  0.058500	  0.980500	    0.100000	    0.180000	    0.100000	   21.937500
    7.3892	 -0.004000	  0.023000	  0.972000	   -0.140000	   -0.200000	   -0.190000	   21.937500
    7.3992	 -0.004000	  0.055000	  0.995500	   -0.100000	   -0.190000	    0.080000	   21.914063
    7.4092	 -0.008000	  0.028000	  1.010000	   -0.380000	   -0.160000	   -0.090000	   21.925781
    7.4196	  0.002500	  0.060000	  1.005000	    0.230000	    0.480000	    0.070000	   21.921875
    7.4294	  0.005000	  0.017000	  0.959500	   -0.320000	   -0.070000	   -0.040000	   21.921875
    7.4392	 -0.009000	  0.059000	  1.001500	   -0.060000	   -0.270000	    0.070000	   21.921875
    7.4492	  0.006000	  0.024500	  0.994500	   -0.280000	    0.050000	   -0.120000	   21.921875
    7.4593	  0.013500	  0.067500	  0.986000	    0.080000	    0.100000	    0.110000	   21.906250
    7.4692	 -0.008000	  0.022000	  0.961500	   -0.290000	   -0.230000	    0.030000	   21.917969
    7.4792	 -0.004500	  0.057500	  1.001500	   -0.080000	   -0.100000	    0.140000	   21.937500
    7.4892	  0.004000	  0.019500	  0.997500	   -0.380000	   -0.180000	   -0.040000	   21.921875
    7.4992	  0.001500	  0.065000	  0.996500	    0.100000	    0.330000	    0.030000	   21.914063
    7.5094	  0.004500	  0.020000	  0.970500	   -0.250000	   -0.130000	   -0.110000	   21.937500
    7.5192	 -0.007000	  0.056000	  1.010500	   -0.170000	   -0.250000	    0.090000	   21.949219
    7.5292	 -0.010500	  0.024500	  1.000500	   -0.230000	    0.080000	   -0.020000	   21.941406
    7.5392	  0.013500	  0.063000	  0.983500	    0.110000	    0.370000	   -0.030000	   21.917969
    7.5492	  0.007500	  0.024000	  0.959500	   -0.170000	   -0.230000	   -0.050000	   21.929688
    7.5593	 -0.016500	  0.060500	  0.998000	   -0.070000	   -0.130000	    0.000000	   21.925781
    7.5692	 -0.001500	  0.027500	  0.996000	   -0.300000	   -0.070000	   -0.050000	   21.937500
    7.5792	  0.013500	  0.053500	  0.990500	    0.140000	    0.250000	    0.020000	   21.964844
    7.5894	 -0.002000	  0.026500	  0.969500	   -0.010000	   -0.120000	    0.010000	   21.925781
    7.5992	 -0.012000	  0.056000	  1.003000	   -0.240000	   -0.390000	   -0.010000	   21.921875
    7.6092	  0.004000	  0.028000	  1.011000	   -0.340000	    0.040000	   -0.120000	   21.906250
    7.6192	  0.014000	  0.061500	  0.991000	    0.200000	    0.290000	    0.050000	   21.925781
    7.6292	 -0.003500	  0.019000	  0.959500	   -0.230000	   -0.060000	   -0.080000	   21.906250
    7.6392	 -0.004500	  0.058000	  0.997000	    0.000000	   -0.130000	    0.140000	   21.917969
    7.6492	  0.005500	  0.024000	  0.996500	   -0.510000	   -0.040000	   -0.020000	   21.902344
    7.6593	 -0.003500	  0.064000	  0.992000	    0.120000	    0.370000	   -0.010000	   21.925781
    7.6694	 -0.004000	  0.019500	  0.958500	   -0.290000	   -0.090000	   -0.050000	   21.914063
    7.6792	  0.000500	  0.058500	  1.010000	   -0.160000	   -0.270000	    0.010000	   21.914063
    7.6892	 -0.008500	  0.025000	  1.006500	   -0.210000	   -0.060000	   -0.070000	   21.906250
    7.6992	  0.003500	  0.069500	  0.999000	   -0.010000	    0.370000	    0.000000	   21.914063
    7.7092	  0.011000	  0.013000	  0.965500	   -0.040000	   -0.040000	   -0.090000	   21.933594
    7.7192	 -0.005500	  0.063000	  1.005000	   -0.230000	   -0.140000	    0.090000	   21.921875
    7.7292	  0.000500	  0.016500	  0.984500	   -0.230000	    0.020000	   -0.010000	   21.914063
    7.7392	  0.020000	  0.067500	  0.988000	    0.120000	    0.180000	    0.100000	   21.937500
    7.7494	 -0.002000	  0.017500	  0.960000	   -0.130000	   -0.370000	   -0.060000	   21.937500
    7.7593	 -0.016000	  0.062500	  1.010000	   -0.090000	   -0.240000	    0.180000	   21.929688
    7.7692	  0.000000	  0.020000	  0.993500	   -0.310000	   -0.060000	   -0.080000	   21.933594
    7.7792	  0.001500	  0.070000	  1.001500	    0.000000	    0.250000	    0.070000	   21.937500
    7.7892	 -0.005000	  0.019000	  0.966500	   -0.090000	   -0.060000	   -0.060000	   21.949219
    7.7992	 -0.002500	  0.060000	  1.005000	   -0.230000	   -0.160000	    0.100000	   21.929688
    7.8092	 -0.002000	  0.019000	  1.002500	   -0.240000	    0.130000	   -0.020000	   21.941406
    7.8192	  0.010000	  0.061500	  0.982500	   -0.020000	    0.390000	    0.000000	   21.906250
    7.8294	  0.008500	  0.018500	  0.951500	   -0.050000	   -0.180000	   -0.020000	   21.894531
    7.8392	 -0.011000	  0.062500	  1.015000	   -0.040000	   -0.200000	    0.180000	   21.917969
    7.8492	 -0.001500	  0.026000	  0.992000	   -0.270000	    0.280000	    0.010000	   21.945313
    7.8592	  0.014500	  0.058000	  0.980500	   -0.030000	    0.160000	    0.060000	   21.937500
    7.8693	 -0.005000	  0.022500	  0.974500	   -0.090000	   -0.200000	   -0.050000	   21.921875
    7.8792	 -0.013000	  0.059500	  0.999500	   -0.300000	   -0.170000	    0.140000	   21.929688
    7.8892	 -0.001000	  0.026500	  1.014000	   -0.200000	    0.110000	   -0.180000	   21.945313
    7.8992	  0.010000	  0.057000	  0.995000	    0.210000	    0.350000	    0.050000	   21.925781
    7.9095	 -0.001500	  0.020000	  0.956000	   -0.180000	   -0.120000	   -0.100000	   21.933594
    7.9192	 -0.004000	  0.059000	  1.002500	   -0.160000	   -0.140000	    0.060000	   21.914063
    7.9292	  0.006500	  0.029000	  0.998000	   -0.190000	    0.110000	   -0.010000	   21.910156
    7.9393	  0.001500	  0.065000	  0.987000	    0.020000	    0.270000	    0.000000	   21.933594
    7.9492	 -0.002500	  0.023000	  0.958000	   -0.110000	   -0.010000	   -0.130000	   21.933594
    7.9593	  0.001500	  0.055500	  1.002500	   -0.050000	   -0.210000	    0.010000	   21.953125
    7.9693	 -0.005500	  0.023500	  1.007500	   -0.310000	   -0.200000	    0.030000	   21.953125
    7.9792	  0.005000	  0.063500	  0.992000	    0.170000	    0.460000	   -0.030000	   21.960938
    7.9895	  0.010000	  0.014000	  0.966500	   -0.210000	   -0.030000	   -0.050000	   21.933594
    7.9992	 -0.015500	  0.060000	  1.015000	   -0.100000	   -0.110000	    0.050000	   21.945313
    8.0092	 -0.004500	  0.023000	  0.991000	   -0.200000	    0.200000	   -0.070000	   21.921875
    8.0193	  0.020500	  0.066000	  0.985000	    0.190000	    0.340000	    0.050000	   21.921875
    8.0292	 -0.003500	  0.021500	  0.961000	   -0.190000	   -0.300000	    0.030000	   21.933594
    8.0392	 -0.017000	  0.061000	  0.998000	   -0.040000	   -0.120000	    0.010000	   21.957031
    8.0492	  0.005000	  0.019000	  0.996500	   -0.280000	   -0.020000	    0.060000	   21.968750
    8.0593	  0.005000	  0.061500	  0.999500	    0.060000	    0.190000	    0.030000	   21.933594
    8.0695	 -0.008000	  0.022000	  0.959500	   -0.020000	   -0.060000	    0.050000	   21.929688
    8.0793	 -0.005000	  0.057000	  1.012500	   -0.230000	   -0.260000	    0.000000	   21.917969
    8.0893	  0.005500	  0.023500	  1.007000	   -0.210000	    0.080000	    0.080000	   21.921875
    8.0993	  0.013000	  0.064500	  0.979500	    0.050000	    0.260000	    0.070000	   21.937500
    8.1093	  0.001500	  0.019500	  0.962500	    0.010000	   -0.220000	   -0.010000	   21.914063
    8.1193	 -0.002000	  0.062500	  1.005500	   -0.170000	   -0.190000	    0.150000	   21.906250
    8.1293	 -0.001000	  0.026500	  0.992000	   -0.280000	   -0.050000	    0.060000	   21.906250
    8.1393	  0.000500	  0.060500	  0.992500	    0.130000	    0.280000	    0.000000	   21.925781
    8.1495	  0.004000	  0.019500	  0.963500	   -0.120000	   -0.080000	    0.110000	   21.949219
    8.1593	 -0.012500	  0.059000	  1.006500	   -0.300000	   -0.350000	    0.130000	   21.945313
    8.1693	 -0.011500	  0.028000	  1.010500	   -0.230000	    0.030000	   -0.060000	   21.953125
    8.1793	  0.015000	  0.064500	  0.995000	    0.020000	    0.430000	    0.110000	   21.933594
    8.1893	  0.002500	  0.019000	  0.961000	   -0.200000	   -0.090000	    0.020000	   21.949219
    8.1993	 -0.011500	  0.059500	  1.000500	   -0.150000	   -0.170000	    0.150000	   21.929688
    8.2093	  0.012500	  0.023000	  0.988000	   -0.210000	   -0.090000	    0.080000	   21.914063
    8.2193	  0.012500	  0.063000	  0.989000	    0.070000	    0.030000	   -0.010000	   21.925781
    8.2295	 -0.007500	  0.021000	  0.958500	   -0.070000	   -0.180000	   -0.060000	   21.937500
    8.2393	 -0.007000	  0.053500	  1.005500	   -0.220000	   -0.300000	    0.150000	   21.937500
    8.2493	 -0.006500	  0.026500	  1.012000	   -0.230000	   -0.170000	   -0.040000	   21.945313
    8.2593	 -0.003000	  0.066000	  0.994000	    0.060000	    0.380000	    0.030000	   21.929688
    8.2693	  0.003500	  0.019500	  0.970500	   -0.200000	   -0.100000	   -0.120000	   21.910156
    8.2793	 -0.004500	  0.057000	  1.007000	   -0.180000	   -0.160000	    0.030000	   21.910156
    8.2893	 -0.004000	  0.023000	  0.993000	   -0.310000	    0.070000	   -0.010000	   21.953125
    8.2993	  0.018000	  0.061000	  0.985000	    0.100000	    0.390000	    0.020000	   21.937500
    8.3095	  0.006000	  0.021000	  0.959500	   -0.210000	   -0.260000	   -0.100000	   21.933594
    8.3193	 -0.016500	  0.060000	  1.007000	   -0.230000	   -0.290000	    0.060000	   21.925781
    8.3293	  0.002500	  0.025000	  0.992500	   -0.390000	    0.040000	   -0.020000	   21.925781
    8.3393	  0.015500	  0.062500	  0.990000	    0.070000	    0.250000	    0.060000	   21.949219
    8.3493	 -0.010000	  0.021000	  0.971000	   -0.140000	   -0.150000	    0.010000	   21.937500
    8.3593	 -0.009500	  0.059500	  1.005000	   -0.060000	   -0.220000	    0.050000	   21.957031
    8.3693	  0.003000	  0.020000	  1.007000	   -0.330000	   -0.090000	   -0.080000	   21.964844
    8.3793	  0.006000	  0.063500	  0.992500	    0.120000	    0.380000	    0.000000	   21.937500
    8.3895	  0.002000	  0.017000	  0.952500	   -0.160000	   -0.110000	   -0.170000	   21.933594
    8.3993	 -0.002500	  0.064500	  1.008000	   -0.120000	   -0.280000	    0.150000	   21.937500
    8.4093	 -0.002000	  0.027500	  0.994000	   -0.180000	   -0.050000	   -0.120000	   21.937500
    8.4197	  0.001500	  0.065000	  0.990500	    0.070000	    0.260000	    0.070000	   21.906250
    8.4293	  0.004000	  0.018500	  0.960000	   -0.120000	   -0.240000	   -0.120000	   21.925781
    8.4393	 -0.007500	  0.058000	  1.002000	   -0.100000	   -0.270000	    0.000000	   21.925781
    8.4493	 -0.009500	  0.022000	  1.006000	   -0.320000	   -0.010000	   -0.150000	   21.925781
    8.4593	  0.017500	  0.061500	  0.995000	    0.030000	    0.300000	    0.050000	   21.925781
    8.4695	  0.006000	  0.015000	  0.963000	   -0.110000	   -0.150000	   -0.030000	   21.937500
    8.4793	 -0.018500	  0.060500	  1.008000	   -0.130000	   -0.140000	    0.020000	   21.929688
    8.4893	  0.003500	  0.025000	  0.990000	   -0.190000	    0.180000	   -0.010000	   21.937500
    8.4993	  0.013500	  0.065500	  0.993000	    0.010000	    0.210000	    0.030000	   21.929688
    8.5093	 -0.011500	  0.024000	  0.959000	   -0.160000	   -0.110000	    0.030000	   21.933594
    8.5193	 -0.005500	  0.056500	  0.994500	   -0.150000	   -0.200000	    0.090000	   21.929688
    8.5293	  0.005000	  0.022000	  1.005000	   -0.240000	   -0.110000	   -0.060000	   21.957031
    8.5393	 -0.002500	  0.064000	  0.995500	    0.010000	    0.150000	    0.050000	   21.968750
    8.5495	  0.001000	  0.020500	  0.963500	   -0.220000	   -0.030000	   -0.030000	   21.949219
    8.5593	 -0.000500	  0.056500	  1.016000	   -0.340000	   -0.200000	    0.160000	   21.925781
    8.5693	  0.000000	  0.024000	  0.995000	   -0.130000	    0.150000	   -0.100000	   21.933594
    8.5793	  0.015000	  0.063500	  0.978500	    0.090000	    0.230000	   -0.080000	   21.937500
    8.5893	  0.006000	  0.021000	  0.965500	   -0.100000	   -0.300000	   -0.010000	   21.929688
    8.5993	 -0.009500	  0.063000	  1.002500	   -0.140000	   -0.140000	   -0.010000	   21.933594
    8.6093	 -0.005000	  0.023000	  0.993000	   -0.310000	   -0.040000	   -0.080000	   21.929688
    8.6193	  0.006500	  0.058000	  0.995500	    0.010000	    0.210000	    0.100000	   21.929688
    8.6295	 -0.001500	  0.022000	  0.967500	   -0.040000	   -0.150000	    0.000000	   21.937500
    8.6393	 -0.014000	  0.058000	  1.007500	   -0.280000	   -0.210000	    0.030000	   21.941406
    8.6493	 -0.003500	  0.027500	  1.010500	   -0.290000	    0.000000	   -0.100000	   21.945313
    8.6593	  0.015500	  0.063000	  0.990500	    0.070000	    0.480000	    0.040000	   21.917969
    8.6693	  0.001000	  0.020000	  0.958500	   -0.140000	   -0.200000	   -0.030000	   21.960938
    8.6793	 -0.006000	  0.060000	  0.999000	   -0.050000	   -0.030000	    0.090000	   21.937500
    8.6893	  0.007500	  0.023500	  0.994500	   -0.300000	   -0.100000	    0.120000	   21.941406
    8.6993	  0.005500	  0.061000	  0.987500	    0.040000	    0.280000	    0.060000	   21.941406
    8.7095	 -0.003000	  0.020000	  0.961000	   -0.160000	   -0.120000	   -0.080000	   21.925781
    8.7193	 -0.009000	  0.057500	  1.010000	   -0.180000	   -0.200000	    0.160000	   21.917969
    8.7293	 -0.009500	  0.024500	  1.008500	   -0.260000	    0.010000	   -0.070000	   21.933594
    8.7393	  0.004000	  0.066500	  0.997000	    0.040000	    0.510000	    0.040000	   21.914063
    8.7493	  0.004500	  0.015500	  0.963500	   -0.030000	   -0.030000	   -0.070000	   21.921875
    8.7593	 -0.008000	  0.062500	  1.005500	   -0.140000	   -0.060000	    0.050000	   21.953125
    8.7693	  0.003000	  0.018000	  0.985500	   -0.180000	   -0.050000	    0.010000	   21.960938
    8.7793	  0.013500	  0.065500	  0.990500	    0.060000	    0.260000	    0.030000	   21.964844
    8.7895	 -0.005000	  0.021500	  0.957500	   -0.230000	   -0.280000	    0.040000	   21.949219
    8.7993	 -0.007500	  0.060000	  1.008000	   -0.240000	   -0.160000	   -0.020000	   21.941406
    8.8093	  0.006000	  0.022000	  0.994500	   -0.230000	    0.000000	    0.010000	   21.937500
    8.8193	  0.002500	  0.065000	  0.991000	    0.050000	    0.280000	    0.050000	   21.929688
    8.8293	 -0.005000	  0.018500	  0.972000	   -0.050000	   -0.210000	    0.050000	   21.945313
    8.8393	 -0.001500	  0.059000	  1.009500	   -0.300000	   -0.170000	    0.040000	   21.929688
    8.8493	 -0.005000	  0.020000	  1.000500	   -0.110000	    0.070000	    0.010000	   21.933594
    8.8593	  0.007500	  0.064000	  0.983000	    0.020000	    0.440000	   -0.030000	   21.949219
    8.8696	  0.008500	  0.017000	  0.953500	   -0.120000	   -0.300000	    0.010000	   21.949219
    8.8793	 -0.012500	  0.064000	  1.015000	   -0.300000	   -0.210000	    0.060000	   21.941406
    8.8893	 -0.005000	  0.026500	  0.988000	   -0.160000	    0.080000	   -0.060000	   21.925781
    8.8993	  0.012000	  0.060000	  0.988500	   -0.020000	    0.150000	    0.020000	   21.917969
    8.9093	 -0.001000	  0.021500	  0.966500	   -0.120000	   -0.170000	    0.120000	   21.929688
    8.9193	 -0.012000	  0.060500	  1.004500	   -0.290000	   -0.170000	    0.060000	   21.917969
    8.9293	  0.002500	  0.021500	  1.009000	   -0.120000	    0.050000	   -0.110000	   21.933594
    8.9393	  0.019500	  0.058500	  0.987500	   -0.100000	    0.530000	   -0.030000	   21.968750
    8.9495	 -0.003500	  0.020500	  0.958000	   -0.180000	   -0.210000	    0.000000	   21.960938
    8.9593	 -0.011000	  0.058000	  1.009500	   -0.260000	   -0.190000	    0.070000	   21.945313
    8.9693	  0.007500	  0.028500	  0.995500	   -0.150000	   -0.110000	   -0.010000	   21.949219
    8.9793	 -0.000500	  0.063500	  0.990500	    0.080000	    0.290000	   -0.010000	   21.964844
    8.9893	 -0.006000	  0.024500	  0.959500	   -0.140000	    0.040000	   -0.010000	   21.949219
    8.9993	 -0.000500	  0.053500	  0.997500	   -0.090000	   -0.140000	    0.000000	   21.925781
    9.0093	 -0.007000	  0.027000	  1.010500	   -0.250000	   -0.300000	   -0.040000	   21.937500
    9.0193	  0.000500	  0.060000	  0.993500	    0.040000	    0.320000	    0.020000	   21.953125
    9.0295	  0.006500	  0.019000	  0.963000	   -0.200000	   -0.210000	    0.010000	   21.933594
    9.0393	 -0.010000	  0.058500	  1.014000	   -0.150000	   -0.280000	    0.060000	   21.933594
    9.0493	  0.003500	  0.024500	  0.989500	   -0.260000	    0.150000	   -0.130000	   21.941406
    9.0593	  0.022000	  0.064500	  0.980000	    0.010000	    0.130000	    0.060000	   21.957031
    9.0693	 -0.006000	  0.021500	  0.966000	   -0.120000	   -0.310000	    0.080000	   21.941406
    9.0793	 -0.013000	  0.062500	  1.003500	   -0.120000	   -0.050000	    0.100000	   21.953125
    9.0893	  0.006000	  0.018500	  0.995500	   -0.250000	   -0.110000	   -0.120000	   21.957031
    9.0993	  0.000500	  0.064000	  1.000000	    0.040000	    0.300000	    0.030000	   21.957031
    9.1095	 -0.006500	  0.018500	  0.959000	    0.010000	   -0.080000	   -0.070000	   21.949219
    9.1193	 -0.006500	  0.059500	  1.017500	   -0.360000	   -0.330000	    0.080000	   21.941406
    9.1293	  0.000000	  0.025000	  1.004000	   -0.130000	    0.240000	   -0.150000	   21.933594
    9.1393	  0.010000	  0.066000	  0.979500	    0.020000	    0.360000	    0.060000	   21.933594
    9.1493	  0.006500	  0.017500	  0.957000	   -0.300000	   -0.180000	   -0.020000	   21.933594
    9.1594	 -0.004500	  0.062000	  1.007000	   -0.120000	   -0.210000	    0.030000	   21.945313
    9.1693	 -0.000500	  0.024000	  0.990000	   -0.180000	   -0.060000	   -0.030000	   21.960938
    9.1793	  0.011500	  0.058000	  0.986500	   -0.050000	    0.300000	    0.090000	   21.921875
    9.1895	  0.003500	  0.018500	  0.962000	   -0.090000	   -0.280000	   -0.050000	   21.941406
    9.1993	 -0.018500	  0.059500	  1.011500	   -0.400000	   -0.320000	    0.090000	   21.937500
    9.2093	 -0.009000	  0.029000	  1.011500	   -0.220000	    0.070000	    0.010000	   21.945313
    9.2193	  0.014500	  0.062000	  0.995000	   -0.020000	    0.460000	    0.050000	   21.949219
    9.2293	 -0.003500	  0.020000	  0.962500	   -0.040000	   -0.170000	    0.070000	   21.949219
    9.2393	 -0.012000	  0.059000	  0.998000	   -0.240000	   -0.150000	    0.060000	   21.949219
    9.2493	  0.010500	  0.025500	  0.991500	   -0.220000	    0.010000	   -0.070000	   21.953125
    9.2594	  0.003000	  0.061000	  0.993000	   -0.040000	    0.250000	    0.010000	   21.953125
    9.2695	 -0.008500	  0.024000	  0.953500	   -0.180000	   -0.110000	    0.080000	   21.976563
    9.2793	  0.000000	  0.054000	  1.007000	   -0.300000	   -0.250000	   -0.010000	   21.957031
    9.2893	  0.001500	  0.026500	  1.006500	   -0.210000	   -0.070000	   -0.100000	   21.960938
    9.2993	  0.001000	  0.066500	  0.985500	   -0.050000	    0.160000	    0.090000	   21.949219
    9.3093	  0.003000	  0.018000	  0.975500	   -0.110000	   -0.200000	   -0.060000	   21.945313
    9.3193	 -0.002500	  0.058000	  1.011500	   -0.290000	   -0.250000	    0.170000	   21.929688
    9.3293	 -0.006000	  0.022500	  0.987000	   -0.010000	    0.070000	   -0.010000	   21.929688
    9.3393	  0.012000	  0.063500	  0.988500	    0.010000	    0.360000	    0.020000	   21.949219
    9.3495	  0.006000	  0.019500	  0.961500	   -0.190000	   -0.220000	    0.060000	   21.949219
    9.3593	 -0.017500	  0.064500	  1.009000	   -0.290000	   -0.150000	    0.000000	   21.964844
    9.3693	 -0.003000	  0.025000	  0.990500	   -0.130000	    0.040000	   -0.060000	   21.957031
    9.3793	  0.010500	  0.064000	  0.995500	   -0.010000	    0.320000	   -0.010000	   21.945313
    9.3893	 -0.005500	  0.021500	  0.963000	    0.000000	   -0.050000	    0.040000	   21.949219
    9.3993	 -0.009000	  0.060000	  1.012000	   -0.200000	   -0.120000	    0.020000	   21.937500
    9.4093	  0.005500	  0.021500	  1.004000	   -0.140000	   -0.020000	   -0.010000	   21.925781
    9.4197	  0.014500	  0.062500	  0.982500	   -0.050000	    0.330000	   -0.020000	   21.929688
    9.4295	  0.000500	  0.018500	  0.957000	   -0.110000	   -0.280000	    0.050000	   21.945313
    9.4393	 -0.008000	  0.063000	  1.014000	   -0.240000	   -0.180000	    0.060000	   21.933594
    9.4493	 -0.004000	  0.028000	  0.990500	   -0.100000	    0.010000	   -0.030000	   21.933594
    9.4594	  0.001500	  0.062000	  0.992000	   -0.160000	    0.240000	    0.080000	   21.953125
    9.4693	  0.000000	  0.020500	  0.961500	   -0.070000	   -0.130000	   -0.020000	   21.953125
    9.4793	 -0.009500	  0.059500	  1.002000	   -0.140000	   -0.330000	    0.050000	   21.949219
    9.4893	 -0.007000	  0.024500	  1.011000	   -0.080000	   -0.070000	   -0.040000	   21.925781
    9.4993	  0.012000	  0.059000	  0.993500	   -0.010000	    0.480000	    0.010000	   21.945313
    9.5095	  0.001000	  0.018000	  0.959500	   -0.070000	   -0.270000	   -0.020000	   21.945313
    9.5193	 -0.012000	  0.060000	  1.010500	   -0.290000	   -0.160000	   -0.060000	   21.964844
    9.5293	  0.013500	  0.023500	  0.984500	   -0.120000	    0.140000	    0.010000	   21.957031
    9.5393	  0.011000	  0.065500	  0.985500	   -0.090000	    0.050000	    0.070000	   21.953125
    9.5493	 -0.014500	  0.022500	  0.967000	   -0.160000	   -0.360000	    0.000000	   21.949219
    9.5594	  0.000000	  0.059500	  1.004000	   -0.180000	   -0.040000	    0.050000	   21.964844
    9.5693	  0.002500	  0.020000	  0.999000	   -0.080000	   -0.080000	   -0.040000	   21.960938
    9.5793	 -0.008500	  0.065500	  0.997500	    0.020000	    0.290000	    0.030000	   21.929688
    9.5895	  0.003500	  0.016500	  0.964500	   -0.050000	   -0.060000	   -0.050000	   21.929688
    9.5993	 -0.002000	  0.059500	  1.021500	   -0.290000	   -0.170000	   -0.020000	   21.945313
    9.6093	 -0.007500	  0.026000	  0.991000	   -0.120000	    0.140000	   -0.050000	   21.949219
    9.6193	  0.014000	  0.064000	  0.982000	   -0.100000	    0.320000	   -0.020000	   21.949219
    9.6293	  0.008000	  0.021000	  0.961500	   -0.080000	   -0.280000	    0.000000	   21.941406
    9.6393	 -0.014500	  0.062500	  1.003500	   -0.270000	   -0.120000	    0.010000	   21.941406
    9.6493	 -0.001500	  0.023500	  0.991500	   -0.240000	   -0.100000	   -0.040000	   21.949219
    9.6594	  0.015500	  0.054500	  0.986000	   -0.100000	    0.290000	   -0.010000	   21.949219
    9.6696	 -0.005500	  0.024000	  0.964500	   -0.020000	   -0.330000	    0.040000	   21.945313
    9.6793	 -0.021500	  0.057500	  1.017500	   -0.320000	   -0.380000	   -0.050000	   21.949219
    9.6893	  0.000500	  0.028000	  1.009500	   -0.160000	    0.180000	    0.000000	   21.953125
    9.6994	  0.012000	  0.060500	  0.989500	   -0.070000	    0.350000	   -0.040000	   21.941406
    9.7093	 -0.005500	  0.021000	  0.958000	   -0.040000	   -0.130000	    0.050000	   21.953125
    9.7193	 -0.002500	  0.060000	  0.998500	   -0.240000	   -0.120000	    0.000000	   21.945313
    9.7293	  0.007000	  0.024500	  0.997000	   -0.200000	   -0.160000	    0.040000	   21.933594
    9.7393	 -0.001000	  0.059000	  0.992000	   -0.090000	    0.290000	    0.010000	   21.937500
    9.7496	 -0.003500	  0.021500	  0.951000	   -0.130000	   -0.190000	   -0.070000	   21.957031
    9.7594	 -0.003500	  0.058500	  1.014500	   -0.320000	   -0.420000	    0.000000	   21.945313
    9.7694	 -0.003500	  0.027000	  1.007000	   -0.110000	    0.170000	    0.030000	   21.933594
    9.7793	  0.007000	  0.065000	  0.992000	   -0.130000	    0.240000	    0.060000	   21.929688
    9.7894	  0.001000	  0.015500	  0.966000	   -0.140000	   -0.050000	   -0.070000	   21.968750
    9.7993	 -0.007000	  0.063000	  1.012500	   -0.100000	    0.010000	    0.050000	   21.960938
    9.8094	  0.006000	  0.020000	  0.982000	   -0.190000	   -0.050000	    0.000000	   21.941406
    9.8194	  0.008000	  0.065500	  0.989500	   -0.090000	    0.220000	    0.080000	   21.929688
    9.8296	 -0.006000	  0.021500	  0.960000	   -0.020000	   -0.190000	   -0.060000	   21.937500
    9.8394	 -0.009500	  0.060500	  1.010500	   -0.300000	   -0.120000	    0.100000	   21.941406
    9.8493	 -0.001500	  0.023500	  0.996000	   -0.030000	    0.060000	   -0.050000	   21.917969
    9.8594	  0.000500	  0.066000	  0.997500	   -0.020000	    0.220000	    0.000000	   21.941406
    9.8694	  0.000000	  0.018500	  0.964000	    0.010000	   -0.170000	   -0.040000	   21.968750
    9.8794	 -0.005500	  0.058000	  1.012000	   -0.310000	   -0.200000	    0.060000	   21.949219
    9.8894	 -0.001000	  0.021000	  0.994500	   -0.130000	    0.090000	    0.080000	   21.960938
    9.8994	  0.016000	  0.061500	  0.975000	   -0.040000	    0.360000	    0.000000	   21.964844
    9.9096	  0.002500	  0.018000	  0.957500	   -0.160000	   -0.440000	    0.080000	   21.968750
    9.9194	 -0.019000	  0.063000	  1.016000	   -0.310000	   -0.260000	   -0.030000	   21.968750
    9.9294	 -0.002500	  0.028000	  0.989000	   -0.080000	    0.110000	   -0.030000	   21.941406
    9.9394	  0.011000	  0.057000	  0.990000	    0.050000	    0.160000	   -0.060000	   21.941406
    9.9494	 -0.005500	  0.025500	  0.965000	   -0.070000	   -0.220000	   -0.050000	   21.929688
    9.9594	 -0.014000	  0.058000	  1.001500	   -0.360000	   -0.370000	    0.080000	   21.945313
    9.9694	  0.003000	  0.025000	  1.018000	   -0.160000	    0.000000	    0.030000	   21.945313
    9.9794	  0.013500	  0.056000	  0.986000	   -0.110000	    0.400000	   -0.010000	   21.933594
    9.9896	 -0.005000	  0.021500	  0.953500	   -0.120000	   -0.090000	   -0.020000	   21.929688
    9.9994	 -0.005000	  0.057000	  1.008500	   -0.250000	   -0.060000	    0.050000	   21.949219
   10.0094	  0.012500	  0.030500	  0.992500	    0.000000	    0.180000	   -0.060000	   21.960938
   10.0194	  0.001500	  0.061500	  0.984500	   -0.100000	    0.160000	   -0.020000	   21.972656
   10.0294	 -0.007000	  0.023500	  0.965000	   -0.120000	   -0.250000	   -0.010000	   21.929688
   10.0394	  0.002500	  0.056500	  1.002000	   -0.340000	   -0.240000	    0.030000	   21.937500
   10.0494	 -0.006500	  0.027000	  1.009500	   -0.130000	   -0.070000	    0.010000	   21.945313
   10.0594	 -0.000500	  0.063500	  0.997500	    0.000000	    0.560000	   -0.020000	   21.941406
   10.0696	  0.008500	  0.014500	  0.962000	   -0.110000	   -0.120000	    0.000000	   21.957031
   10.0794	 -0.012000	  0.061500	  1.018500	   -0.270000	   -0.180000	    0.170000	   21.968750
   10.0894	 -0.000500	  0.024000	  0.982500	   -0.050000	    0.030000	    0.030000	   21.945313
   10.0994	  0.019000	  0.068000	  0.987500	   -0.020000	    0.270000	   -0.050000	   21.949219
   10.1094	 -0.003500	  0.020500	  0.961000	    0.000000	   -0.230000	    0.040000	   21.941406
   10.1194	 -0.012000	  0.062000	  1.006500	   -0.270000	   -0.140000	    0.000000	   21.964844
   10.1294	  0.007000	  0.017000	  0.991000	   -0.050000	   -0.100000	    0.020000	   21.972656
   10.1394	  0.006000	  0.063000	  0.994000	    0.000000	    0.250000	   -0.090000	   21.949219
   10.1496	 -0.008000	  0.020500	  0.961000	   -0.110000	   -0.300000	    0.060000	   21.925781
   10.1594	 -0.012000	  0.057000	  1.025000	   -0.300000	   -0.310000	    0.000000	   21.941406
   10.1694	 -0.001500	  0.027500	  1.002000	   -0.140000	    0.190000	    0.130000	   21.933594
   10.1794	  0.010500	  0.062500	  0.980000	   -0.190000	    0.330000	   -0.070000	   21.949219
   10.1894	  0.004000	  0.021000	  0.960500	    0.100000	   -0.180000	    0.100000	   21.964844
   10.1994	 -0.006500	  0.060000	  1.006500	   -0.440000	   -0.170000	    0.130000	   21.953125
   10.2094	 -0.000500	  0.025500	  0.992500	   -0.040000	   -0.010000	   -0.030000	   21.945313
   10.2194	  0.008500	  0.055500	  0.990000	   -0.080000	    0.220000	   -0.120000	   21.941406
   10.2296	  0.000000	  0.023000	  0.957000	    0.040000	   -0.220000	   -0.010000	   21.945313
   10.2394	 -0.012500	  0.058000	  1.013000	   -0.290000	   -0.280000	    0.000000	   21.953125
   10.2494	  0.001000	  0.027000	  1.010000	   -0.210000	    0.070000	    0.000000	   21.988281
   10.2594	  0.015500	  0.060500	  0.983000	   -0.160000	    0.260000	    0.050000	   21.968750
   10.2694	 -0.008000	  0.020500	  0.963500	   -0.010000	   -0.280000	    0.130000	   21.921875
   10.2794	 -0.005000	  0.060000	  1.011000	   -0.260000	   -0.110000	    0.090000	   21.925781
   10.2894	  0.011000	  0.024000	  0.983000	   -0.070000	    0.060000	    0.100000	   21.972656
   10.2994	 -0.003000	  0.062000	  0.992500	   -0.070000	    0.170000	   -0.020000	   21.960938
   10.3096	 -0.005500	  0.022000	  0.959000	   -0.110000	   -0.120000	    0.040000	   21.941406
   10.3194	  0.001500	  0.054500	  1.007000	   -0.480000	   -0.300000	    0.040000	   21.945313
   10.3294	 -0.008500	  0.028500	  1.004500	    0.020000	    0.010000	    0.030000	   21.964844
   10.3394	 -0.002000	  0.064500	  0.993000	   -0.190000	    0.280000	   -0.040000	   21.964844
   10.3494	  0.010500	  0.019000	  0.967500	    0.030000	   -0.180000	    0.080000	   21.984375
   10.3594	 -0.006500	  0.056500	  1.012500	   -0.400000	   -0.250000	    0.110000	   21.980469
   10.3694	 -0.001000	  0.022500	  0.986500	    0.060000	    0.120000	   -0.030000	   21.960938
   10.3794	  0.023500	  0.061000	  0.975500	   -0.090000	    0.170000	   -0.010000	   21.960938
   10.3896	 -0.000500	  0.022000	  0.968000	   -0.100000	   -0.490000	    0.080000	   21.941406
   10.3994	 -0.025000	  0.060500	  1.014000	   -0.380000	   -0.240000	    0.070000	   21.937500
   10.4094	  0.003000	  0.025000	  0.988500	   -0.070000	    0.170000	    0.020000	   21.945313
   10.4198	  0.010000	  0.058500	  0.995000	   -0.040000	    0.180000	    0.010000	   21.972656
   10.4294	 -0.010500	  0.026500	  0.963000	    0.080000	   -0.230000	    0.040000	   21.976563
   10.4394	 -0.009000	  0.058000	  1.010000	   -0.340000	   -0.220000	    0.010000	   21.937500
   10.4494	  0.007500	  0.024500	  1.011000	   -0.150000	    0.120000	   -0.050000	   21.953125
   10.4594	  0.009500	  0.058000	  0.977500	   -0.050000	    0.370000	   -0.100000	   21.953125
   10.4696	 -0.002500	  0.022500	  0.953500	    0.010000	   -0.250000	    0.060000	   21.945313
   10.4794	 -0.004000	  0.060500	  1.017500	   -0.380000	   -0.120000	   -0.080000	   21.953125
   10.4894	  0.003500	  0.029000	  0.987500	   -0.110000	    0.270000	   -0.050000	   21.941406
   10.4994	  0.003000	  0.060000	  0.984000	    0.000000	    0.090000	   -0.010000	   21.964844
   10.5094	 -0.003500	  0.019000	  0.966000	   -0.060000	   -0.240000	    0.040000	   21.964844
   10.5194	 -0.007000	  0.060000	  1.009500	   -0.170000	   -0.160000	    0.050000	   21.941406
   10.5294	 -0.006500	  0.025500	  1.008000	   -0.060000	    0.050000	   -0.050000	   21.937500
   10.5394	  0.010500	  0.061000	  0.996000	   -0.060000	    0.450000	    0.060000	   21.980469
   10.5496	  0.001000	  0.017500	  0.956500	    0.040000	   -0.260000	   -0.040000	   21.957031
   10.5594	 -0.012000	  0.062000	  1.015500	   -0.320000	   -0.200000	    0.110000	   21.921875
   10.5694	  0.009000	  0.025000	  0.982500	    0.060000	    0.100000	    0.040000	   21.921875
   10.5794	  0.008000	  0.065000	  0.991500	   -0.200000	    0.110000	   -0.080000	   21.925781
   10.5894	 -0.010500	  0.021500	  0.959000	    0.060000	   -0.270000	    0.080000	   21.957031
   10.5994	 -0.004500	  0.056500	  1.003000	   -0.290000	   -0.140000	    0.050000	   21.980469
   10.6094	  0.001500	  0.022500	  1.004000	   -0.030000	   -0.140000	    0.020000	   21.957031
   10.6194	  0.004000	  0.061000	  0.988000	   -0.190000	    0.190000	    0.020000	   21.929688
   10.6296	  0.002000	  0.020000	  0.965000	   -0.030000	   -0.230000	    0.020000	   21.941406
   10.6394	 -0.014500	  0.055000	  1.025500	   -0.430000	   -0.290000	    0.060000	   21.937500
   10.6494	 -0.003000	  0.029500	  0.991000	   -0.090000	    0.140000	    0.090000	   21.949219
   10.6594	  0.018000	  0.057000	  0.979000	   -0.040000	    0.270000	   -0.080000	   21.953125
   10.6694	  0.000000	  0.026000	  0.966000	    0.000000	   -0.280000	    0.180000	   21.964844
   10.6794	 -0.016000	  0.058500	  0.998000	   -0.260000	   -0.160000	   -0.060000	   21.957031
   10.6894	  0.003000	  0.027500	  0.999500	   -0.150000	   -0.210000	    0.120000	   21.949219
   10.6994	  0.010500	  0.052000	  0.990000	   -0.100000	    0.210000	   -0.070000	   21.964844
   10.7096	 -0.009000	  0.028000	  0.959500	    0.070000	   -0.200000	    0.150000	   21.960938
   10.7194	 -0.013500	  0.055000	  1.014500	   -0.490000	   -0.360000	   -0.010000	   21.949219
   10.7294	  0.007500	  0.028000	  1.013000	   -0.200000	    0.110000	    0.020000	   21.953125
   10.7394	  0.011500	  0.061000	  0.980500	   -0.180000	    0.210000	    0.020000	   21.960938
   10.7494	 -0.003500	  0.019500	  0.960000	   -0.060000	   -0.190000	   -0.030000	   21.968750
   10.7594	 -0.002000	  0.060500	  1.005000	   -0.250000	   -0.090000	    0.070000	   21.960938
   10.7694	  0.003500	  0.026000	  0.991000	   -0.070000	   -0.090000	    0.070000	   21.945313
   10.7794	 -0.002000	  0.061000	  0.992000	   -0.050000	    0.280000	    0.070000	   21.925781
   10.7896	  0.001000	  0.018500	  0.956000	   -0.150000	   -0.270000	    0.000000	   21.945313
   10.7994	 -0.007000	  0.060000	  1.009000	   -0.240000	   -0.250000	   -0.010000	   21.976563
   10.8094	 -0.011000	  0.029000	  1.009000	   -0.110000	   -0.080000	   -0.020000	   21.957031
   10.8194	  0.009000	  0.065000	  0.997000	   -0.240000	    0.370000	   -0.010000	   21.949219
   10.8294	  0.007500	  0.015000	  0.958000	    0.130000	   -0.060000	    0.070000	   21.941406
   10.8394	 -0.013000	  0.061000	  1.009500	   -0.330000	   -0.120000	    0.010000	   21.945313
   10.8494	  0.008000	  0.019000	  0.984500	   -0.090000	    0.130000	    0.020000	   21.929688
   10.8594	  0.020500	  0.064000	  0.984000	    0.060000	    0.290000	   -0.060000	   21.976563
   10.8697	 -0.010000	  0.020500	  0.962000	   -0.100000	   -0.330000	    0.080000	   21.968750
   10.8794	 -0.015000	  0.059000	  1.010500	   -0.270000	   -0.170000	   -0.010000	   21.953125
   10.8894	  0.002500	  0.024500	  0.999000	   -0.180000	   -0.050000	   -0.040000	   21.949219
   10.8994	  0.002500	  0.064000	  0.998500	   -0.060000	    0.190000	    0.110000	   21.937500
   10.9094	 -0.004000	  0.021000	  0.963500	    0.090000	   -0.040000	    0.080000	   21.953125
   10.9194	 -0.006500	  0.056500	  1.008500	   -0.290000	   -0.160000	    0.000000	   21.945313
   10.9294	 -0.002500	  0.023500	  1.003000	    0.070000	    0.160000	   -0.070000	   21.980469
   10.9394	  0.013500	  0.058500	  0.980000	   -0.150000	    0.430000	   -0.080000	   21.972656
   10.9496	  0.005000	  0.021500	  0.954500	    0.010000	   -0.380000	    0.060000	   21.964844
   10.9595	 -0.013500	  0.060000	  1.013000	   -0.270000	   -0.200000	    0.110000	   21.964844
   10.9694	  0.001500	  0.027500	  0.990500	   -0.120000	    0.110000	    0.000000	   21.957031
   10.9794	  0.012500	  0.056000	  0.986500	   -0.120000	    0.080000	   -0.050000	   21.949219
   10.9894	 -0.006500	  0.024500	  0.969500	    0.120000	   -0.160000	    0.050000	   21.957031
   10.9994	 -0.013000	  0.057500	  1.005000	   -0.280000	   -0.270000	   -0.030000	   21.933594
   11.0094	  0.001500	  0.026500	  1.014500	   -0.200000	    0.000000	   -0.090000	   21.937500
   11.0194	  0.011000	  0.059000	  0.991000	    0.030000	    0.440000	   -0.010000	   21.968750
   11.0296	 -0.002000	  0.020500	  0.954500	   -0.050000	   -0.150000	   -0.060000	   21.980469
   11.0394	 -0.006000	  0.060000	  1.010000	   -0.340000	   -0.200000	    0.010000	   21.972656
   11.0494	  0.004500	  0.029000	  0.991500	   -0.060000	    0.020000	   -0.080000	   21.960938
   11.0595	  0.001500	  0.064000	  0.990000	   -0.060000	    0.130000	    0.050000	   21.960938
   11.0694	 -0.002500	  0.022000	  0.961000	   -0.020000	   -0.130000	    0.130000	   21.964844
   11.0794	 -0.001500	  0.056500	  1.002000	   -0.230000	   -0.290000	    0.030000	   21.945313
   11.0894	 -0.005000	  0.023500	  1.008000	   -0.240000	   -0.180000	   -0.100000	   21.964844
   11.0994	  0.006000	  0.063000	  0.993500	   -0.050000	    0.490000	   -0.060000	   21.953125
   11.1096	  0.007500	  0.016500	  0.964000	    0.040000	   -0.210000	   -0.050000	   21.941406
   11.1194	 -0.018500	  0.059000	  1.021000	   -0.380000	   -0.250000	    0.000000	   21.945313
   11.1294	 -0.001000	  0.024500	  0.986000	   -0.180000	    0.360000	    0.020000	   21.949219
   11.1394	  0.021000	  0.064000	  0.982000	   -0.090000	    0.210000	    0.080000	   21.949219
   11.1494	 -0.006000	  0.024000	  0.967500	   -0.060000	   -0.290000	    0.000000	   21.933594
   11.1595	 -0.012000	  0.060000	  0.998500	   -0.250000	   -0.010000	    0.040000	   21.929688
   11.1694	  0.005500	  0.021500	  0.997000	   -0.080000	   -0.070000	   -0.050000	   21.921875
   11.1794	  0.000500	  0.059500	  0.999000	    0.030000	    0.450000	   -0.050000	   21.941406
   11.1896	 -0.005500	  0.023500	  0.957500	   -0.030000	   -0.020000	    0.030000	   21.957031
   11.1994	 -0.006000	  0.055000	  1.018500	   -0.350000	   -0.190000	    0.010000	   21.964844
   11.2094	  0.002000	  0.026000	  1.003500	   -0.140000	    0.210000	    0.050000	   21.957031
   11.2194	  0.012000	  0.061000	  0.971000	   -0.170000	    0.250000	   -0.020000	   21.945313
   11.2294	  0.001500	  0.021500	  0.965500	   -0.170000	   -0.270000	    0.000000	   21.933594
   11.2394	 -0.004000	  0.064000	  1.010500	   -0.220000	   -0.140000	    0.020000	   21.964844
   11.2494	  0.000000	  0.024500	  0.988500	   -0.180000	   -0.010000	   -0.030000	   21.964844
   11.2595	  0.004500	  0.059000	  0.994000	   -0.180000	    0.220000	    0.050000	   21.941406
   11.2697	  0.002500	  0.021000	  0.961500	   -0.090000	   -0.160000	   -0.010000	   21.968750
   11.2794	 -0.013000	  0.061500	  1.013000	   -0.390000	   -0.260000	    0.130000	   21.968750
   11.2894	 -0.006500	  0.026000	  1.009500	   -0.120000	    0.090000	   -0.020000	   21.960938
   11.2994	  0.013500	  0.061500	  0.990000	   -0.040000	    0.460000	   -0.040000	   21.945313
   11.3094	 -0.001500	  0.019500	  0.959000	    0.040000	   -0.250000	    0.040000	   21.972656
   11.3194	 -0.009500	  0.061000	  1.006500	   -0.320000	   -0.170000	   -0.070000	   21.960938
   11.3294	  0.013000	  0.023000	  0.984500	   -0.010000	   -0.050000	   -0.020000	   21.980469
   11.3394	  0.006500	  0.061500	  0.988000	   -0.090000	    0.140000	    0.040000	   21.980469
   11.3496	 -0.009500	  0.022000	  0.958500	   -0.020000	   -0.250000	    0.030000	   21.972656
   11.3594	 -0.005000	  0.056000	  1.011000	   -0.260000	   -0.200000	   -0.060000	   21.964844
   11.3694	 -0.004500	  0.028500	  1.006500	   -0.110000	   -0.060000	    0.020000	   21.949219
   11.3794	 -0.001000	  0.063500	  0.992000	    0.070000	    0.390000	   -0.130000	   21.945313
   11.3894	  0.005000	  0.020000	  0.968000	   -0.060000	   -0.240000	    0.030000	   21.914063
   11.3994	 -0.006000	  0.057500	  1.013000	   -0.210000	   -0.160000	    0.000000	   21.949219
   11.4094	 -0.003500	  0.023000	  0.989500	   -0.110000	    0.160000	    0.130000	   21.964844
   11.4198	  0.017000	  0.059000	  0.982000	   -0.090000	    0.220000	   -0.050000	   21.949219
   11.4297	 -0.000500	  0.025000	  0.962000	    0.100000	   -0.390000	    0.010000	   21.949219
   11.4394	 -0.016500	  0.061000	  1.011500	   -0.300000	   -0.150000	   -0.050000	   21.964844
   11.4494	  0.007500	  0.025000	  0.987500	   -0.060000	    0.050000	    0.030000	   21.972656
   11.4595	  0.010000	  0.059500	  0.991000	   -0.050000	    0.130000	   -0.020000	   21.972656
   11.4694	 -0.012000	  0.023000	  0.968500	    0.040000	   -0.230000	    0.030000	   21.988281
   11.4794	 -0.006500	  0.059500	  1.014000	   -0.430000	   -0.230000	    0.020000	   21.984375
   11.4894	  0.005000	  0.023500	  1.005500	   -0.050000	    0.180000	   -0.040000	   21.968750
   11.4994	  0.006000	  0.061500	  0.983500	   -0.050000	    0.320000	   -0.020000	   21.980469
   11.5097	  0.000000	  0.018500	  0.955000	   -0.100000	   -0.180000	    0.010000	   21.980469
   11.5195	 -0.005000	  0.062500	  1.014000	   -0.330000	   -0.210000	   -0.100000	   21.984375
   11.5294	 -0.002500	  0.029000	  0.989000	   -0.010000	    0.040000	    0.020000	   21.972656
   11.5394	  0.003500	  0.059500	  0.989500	   -0.150000	    0.270000	   -0.020000	   21.953125
   11.5494	  0.001500	  0.020500	  0.959500	    0.110000	   -0.090000	    0.050000	   21.925781
   11.5595	 -0.009000	  0.059500	  1.007000	   -0.320000	   -0.260000	    0.060000	   21.937500
   11.5695	 -0.002500	  0.024500	  1.010000	    0.050000	    0.120000	    0.000000	   21.945313
   11.5794	  0.015500	  0.058000	  0.987500	   -0.160000	    0.330000	   -0.080000	   21.953125
   11.5897	 -0.002000	  0.018000	  0.960000	    0.040000	   -0.270000	   -0.030000	   21.976563
   11.5995	 -0.017000	  0.058000	  1.020000	   -0.310000	   -0.190000	    0.020000	   21.980469
   11.6094	  0.009000	  0.026000	  0.983500	   -0.140000	    0.120000	    0.020000	   21.976563
   11.6195	  0.007000	  0.064000	  0.988000	   -0.080000	    0.080000	   -0.050000	   21.957031
   11.6295	 -0.012000	  0.025500	  0.964500	    0.160000	   -0.130000	   -0.070000	   21.980469
   11.6395	 -0.002000	  0.055500	  0.996500	   -0.240000	   -0.120000	   -0.050000	   21.976563
   11.6494	  0.001000	  0.025000	  1.006500	   -0.040000	   -0.220000	    0.040000	   21.968750
   11.6595	 -0.004500	  0.060500	  0.992500	   -0.160000	    0.310000	    0.090000	   21.976563
   11.6697	  0.001500	  0.022000	  0.960000	   -0.110000	   -0.270000	    0.070000	   21.949219
   11.6795	 -0.005000	  0.053500	  1.022000	   -0.380000	   -0.260000	    0.060000	   21.980469
   11.6895	  0.002500	  0.029500	  0.988000	    0.120000	    0.260000	   -0.040000	   21.980469
   11.6995	  0.017000	  0.059000	  0.973000	   -0.230000	    0.000000	    0.050000	   21.976563
   11.7095	 -0.000500	  0.025500	  0.971000	    0.090000	   -0.360000	    0.010000	   21.953125
   11.7195	 -0.011500	  0.061000	  1.004500	   -0.350000	   -0.120000	    0.060000	   21.945313
   11.7295	  0.000000	  0.026500	  0.994000	   -0.020000	   -0.010000	    0.070000	   21.953125
   11.7395	  0.007000	  0.055000	  0.995500	   -0.120000	    0.240000	   -0.110000	   21.933594
   11.7497	 -0.004500	  0.023500	  0.960000	   -0.070000	   -0.190000	    0.070000	   21.957031
   11.7595	 -0.014000	  0.058500	  1.022500	   -0.470000	   -0.210000	    0.010000	   21.984375
   11.7695	  0.002000	  0.027500	  1.003500	   -0.090000	    0.210000	   -0.020000	   21.972656
   11.7795	  0.010500	  0.061000	  0.982500	   -0.070000	    0.220000	   -0.110000	   21.972656
   11.7895	 -0.004000	  0.021000	  0.959500	   -0.080000	   -0.210000	   -0.050000	   21.992188
   11.7995	 -0.002500	  0.060000	  1.004000	   -0.090000	   -0.090000	   -0.070000	   22.003906
   11.8095	  0.006000	  0.025500	  0.990000	   -0.170000	   -0.140000	   -0.100000	   21.996094
   11.8195	  0.003000	  0.058000	  0.990500	   -0.150000	    0.210000	   -0.040000	   21.949219
   11.8297	  0.000000	  0.020000	  0.953500	    0.040000	   -0.220000	   -0.010000	   21.941406
   11.8395	 -0.011500	  0.058500	  1.018500	   -0.210000	   -0.310000	   -0.060000	   21.980469
   11.8495	 -0.009500	  0.029000	  1.009500	   -0.040000	    0.100000	    0.040000	   21.972656
   11.8595	  0.010000	  0.062500	  0.992500	   -0.220000	    0.400000	   -0.040000	   21.945313
   11.8695	  0.000500	  0.018000	  0.963500	    0.160000	   -0.180000	    0.010000	   21.945313
   11.8795	 -0.013500	  0.060500	  1.012000	   -0.390000	   -0.070000	   -0.080000	   21.964844
   11.8895	  0.009000	  0.021500	  0.985500	    0.000000	    0.040000	    0.060000	   21.953125
   11.8995	  0.012500	  0.061500	  0.990000	   -0.170000	    0.120000	    0.000000	   21.960938
   11.9097	 -0.010000	  0.025000	  0.956500	    0.080000	   -0.160000	    0.070000	   21.972656
   11.9195	 -0.006000	  0.056000	  1.007000	   -0.340000	   -0.260000	   -0.030000	   21.960938
   11.9295	  0.007000	  0.027000	  0.999500	   -0.050000	   -0.020000	    0.050000	   21.953125
   11.9395	 -0.000500	  0.061000	  0.989500	   -0.130000	    0.110000	   -0.050000	   21.972656
   11.9495	 -0.004000	  0.021500	  0.969500	    0.020000	   -0.130000	   -0.020000	   21.972656
   11.9595	 -0.002500	  0.056500	  1.014500	   -0.430000	   -0.220000	    0.050000	   21.949219
   11.9695	 -0.002500	  0.024500	  0.996000	    0.150000	    0.060000	   -0.010000	   21.941406
   11.9795	  0.011500	  0.060000	  0.979500	   -0.180000	    0.230000	   -0.060000	   21.949219
   11.9897	  0.007500	  0.023000	  0.960000	   -0.020000	   -0.330000	    0.000000	   21.972656
   11.9995	 -0.017500	  0.061000	  1.013000	   -0.380000	   -0.210000	    0.080000	   21.968750
   12.0095	 -0.006500	  0.030000	  0.989000	   -0.060000	    0.030000	    0.110000	   21.980469
   12.0195	  0.012000	  0.054000	  0.990000	   -0.190000	    0.190000	   -0.020000	   21.964844
   12.0295	 -0.002000	  0.025000	  0.965500	    0.060000	   -0.110000	    0.020000	   21.945313
   12.0395	 -0.015500	  0.057500	  1.003000	   -0.290000	   -0.290000	   -0.040000	   21.945313
   12.0495	  0.005500	  0.025500	  1.015000	   -0.130000	    0.100000	   -0.080000	   21.957031
   12.0595	  0.018500	  0.055500	  0.982000	   -0.080000	    0.360000	    0.000000	   21.976563
   12.0697	 -0.007000	  0.021500	  0.957000	   -0.050000	   -0.360000	    0.060000	   21.957031
   12.0795	 -0.011000	  0.057000	  1.016500	   -0.380000	   -0.010000	   -0.020000	   21.949219
   12.0895	  0.009000	  0.030000	  0.989500	   -0.090000	    0.090000	   -0.070000	   21.980469
   12.0995	  0.000000	  0.060000	  0.987500	   -0.010000	    0.180000	    0.070000	   21.976563
   12.1095	 -0.008000	  0.025500	  0.960500	   -0.040000	   -0.270000	    0.010000	   21.972656
   12.1195	 -0.001000	  0.055000	  1.003000	   -0.190000	   -0.150000	    0.080000	   21.945313
   12.1295	 -0.005500	  0.027500	  1.011500	   -0.120000	   -0.150000	   -0.020000	   21.949219
   12.1395	  0.001000	  0.059000	  0.996000	   -0.180000	    0.260000	   -0.090000	   21.937500
   12.1497	  0.006500	  0.017500	  0.956500	   -0.090000	   -0.310000	   -0.040000	   21.964844
   12.1595	 -0.010000	  0.057500	  1.023000	   -0.170000	   -0.130000	    0.110000	   21.960938
   12.1695	  0.005000	  0.025000	  0.980000	   -0.040000	    0.220000	   -0.060000	   21.949219
   12.1795	  0.017000	  0.064000	  0.979500	   -0.080000	    0.020000	    0.020000	   21.976563
   12.1895	 -0.009000	  0.023500	  0.971500	   -0.050000	   -0.360000	    0.000000	   21.968750
   12.1995	 -0.009000	  0.061000	  1.006000	   -0.300000	   -0.100000	   -0.030000	   21.945313
   12.2095	  0.005500	  0.020500	  0.993500	   -0.030000	   -0.110000	    0.050000	   21.976563
   12.2195	 -0.000500	  0.061000	  1.002000	   -0.170000	    0.210000	    0.010000	   22.000000
   12.2297	 -0.004000	  0.021000	  0.958000	   -0.100000	   -0.190000	   -0.020000	   21.972656
   12.2395	 -0.008000	  0.056500	  1.023500	   -0.320000	   -0.270000	   -0.020000	   21.949219
   12.2495	 -0.002000	  0.027000	  0.998500	    0.050000	    0.240000	   -0.010000	   21.953125
   12.2595	  0.011000	  0.060500	  0.974000	   -0.300000	    0.270000	   -0.040000	   21.976563
   12.2695	  0.000000	  0.022000	  0.963000	    0.090000	   -0.300000	    0.010000	   21.992188
   12.2795	 -0.009500	  0.060000	  1.007500	   -0.320000	   -0.110000	    0.010000	   22.000000
   12.2895	  0.001500	  0.026000	  0.988000	   -0.140000	    0.000000	   -0.040000	   21.984375
   12.2995	  0.009000	  0.054500	  0.986000	   -0.040000	    0.320000	   -0.100000	   21.953125
   12.3097	 -0.001000	  0.023500	  0.962000	    0.110000	   -0.280000	    0.050000	   21.957031
   12.3195	 -0.016000	  0.056500	  1.017000	   -0.410000	   -0.240000	   -0.030000	   21.976563
   12.3295	 -0.003500	  0.030500	  1.015000	   -0.150000	    0.130000	    0.030000	   21.960938
   12.3395	  0.015500	  0.058000	  0.984000	   -0.160000	    0.190000	    0.080000	   21.941406
   12.3495	 -0.003500	  0.024000	  0.962500	    0.100000	   -0.110000	    0.090000	   21.957031
   12.3595	 -0.007500	  0.055500	  1.006500	   -0.390000	   -0.040000	   -0.090000	   21.976563
   12.3695	  0.013000	  0.030000	  0.987500	   -0.060000	   -0.110000	    0.060000	   21.976563
   12.3795	  0.000000	  0.057500	  0.987500	   -0.170000	    0.130000	   -0.130000	   21.996094
   12.3897	 -0.008500	  0.028500	  0.958000	    0.050000	   -0.050000	    0.010000	   22.000000
   12.3995	 -0.000500	  0.051000	  1.007000	   -0.220000	   -0.140000	   -0.160000	   21.988281
   12.4095	 -0.003000	  0.032000	  1.007500	    0.050000	    0.000000	    0.050000	   21.980469
   12.4199	 -0.002500	  0.059000	  0.986500	   -0.260000	    0.230000	    0.020000	   21.953125
   12.4295	  0.002000	  0.024000	  0.970500	    0.030000	   -0.240000	    0.070000	   21.949219
   12.4395	 -0.005500	  0.056500	  1.016500	   -0.360000	   -0.150000	   -0.060000	   21.945313
   12.4495	 -0.001500	  0.025000	  0.986500	    0.140000	    0.270000	   -0.010000	   21.964844
   12.4595	  0.017000	  0.059000	  0.979500	   -0.130000	    0.330000	   -0.040000	   21.976563
   12.4697	  0.001000	  0.024500	  0.967000	   -0.070000	   -0.290000	    0.180000	   21.984375
   12.4795	 -0.019000	  0.060500	  1.010500	   -0.330000	   -0.170000	    0.020000	   21.964844
   12.4895	  0.002500	  0.026500	  0.989000	   -0.030000	    0.060000	   -0.070000	   21.968750
   12.4995	  0.008500	  0.059000	  0.997000	   -0.190000	    0.110000	   -0.050000	   21.964844
   12.5095	 -0.009000	  0.023000	  0.960000	   -0.040000	   -0.180000	    0.020000	   21.964844
   12.5195	 -0.007500	  0.057000	  1.015000	   -0.350000	   -0.140000	   -0.070000	   21.968750
   12.5295	  0.010000	  0.022000	  1.005000	   -0.030000	    0.170000	   -0.040000	   21.972656
   12.5395	  0.011000	  0.058000	  0.971500	   -0.190000	    0.430000	   -0.130000	   21.949219
   12.5497	 -0.006000	  0.021000	  0.960000	    0.060000	   -0.280000	   -0.010000	   21.964844
   12.5595	 -0.008000	  0.060000	  1.021000	   -0.420000	   -0.260000	    0.050000	   21.980469
   12.5695	  0.000500	  0.029500	  0.985500	   -0.030000	    0.090000	    0.010000	   21.968750
