ï»¿Time_s    	AccX_g    	AccY_g    	AccZ_g    	GyroX_degs  	GyroY_degs  	GyroZ_degs  	IMU_Temperature
    0.1217	 -0.003500	  0.039000	  1.010500	   -0.400000	   -0.120000	    0.270000	   20.578125
    0.1317	 -0.002500	  0.037000	  1.010000	   -0.450000	   -0.200000	    0.190000	   20.558594
    0.1417	 -0.002000	  0.038500	  1.010000	   -0.300000	   -0.060000	    0.170000	   20.578125
    0.1517	 -0.002500	  0.038000	  1.009000	   -0.470000	   -0.260000	    0.220000	   20.574219
    0.1617	 -0.002000	  0.037000	  1.010500	   -0.470000	   -0.100000	    0.260000	   20.574219
    0.1717	 -0.003000	  0.038000	  1.009500	   -0.420000	   -0.170000	    0.290000	   20.566406
    0.1817	 -0.003500	  0.037000	  1.009500	   -0.520000	   -0.120000	    0.240000	   20.562500
    0.1917	 -0.003500	  0.038000	  1.010000	   -0.380000	   -0.150000	    0.290000	   20.574219
    0.2017	 -0.002000	  0.038000	  1.009000	   -0.280000	   -0.240000	    0.140000	   20.593750
    0.2117	 -0.003000	  0.037500	  1.009000	   -0.410000	   -0.150000	    0.330000	   20.589844
    0.2217	 -0.003500	  0.038000	  1.011500	   -0.500000	   -0.250000	    0.200000	   20.562500
    0.2317	 -0.003000	  0.035500	  1.008500	   -0.610000	   -0.080000	    0.060000	   20.562500
    0.2417	 -0.001000	  0.037500	  1.010500	   -0.400000	   -0.130000	    0.250000	   20.570313
    0.2517	 -0.003000	  0.037500	  1.010000	   -0.510000	   -0.150000	    0.210000	   20.589844
    0.2617	 -0.002000	  0.038000	  1.008500	   -0.480000	   -0.170000	    0.240000	   20.578125
    0.2717	 -0.002000	  0.037000	  1.009500	   -0.380000	   -0.020000	    0.200000	   20.554688
    0.2817	 -0.002500	  0.037000	  1.010500	   -0.460000	   -0.130000	    0.230000	   20.531250
    0.2917	 -0.001500	  0.036500	  1.009000	   -0.520000	   -0.220000	    0.340000	   20.585938
    0.3017	 -0.002500	  0.038000	  1.011000	   -0.330000	   -0.210000	    0.150000	   20.585938
    0.3117	 -0.001500	  0.036000	  1.007500	   -0.510000	   -0.180000	    0.240000	   20.570313
    0.3217	 -0.003000	  0.037500	  1.009500	   -0.380000	   -0.120000	    0.130000	   20.578125
    0.3317	 -0.002000	  0.038000	  1.008500	   -0.460000	   -0.150000	    0.230000	   20.585938
    0.3417	 -0.001000	  0.037000	  1.009000	   -0.510000	   -0.080000	    0.100000	   20.562500
    0.3517	 -0.002000	  0.038000	  1.010500	   -0.460000	   -0.220000	    0.320000	   20.585938
    0.3617	 -0.003500	  0.036000	  1.008500	   -0.470000	   -0.180000	    0.250000	   20.582031
    0.3717	 -0.002000	  0.037500	  1.011500	   -0.380000	   -0.250000	    0.280000	   20.546875
    0.3817	 -0.003000	  0.036500	  1.008000	   -0.410000	   -0.120000	    0.350000	   20.550781
    0.3917	 -0.004500	  0.039000	  1.008500	   -0.520000	   -0.260000	    0.340000	   20.562500
    0.4017	 -0.002500	  0.038000	  1.009000	   -0.380000	   -0.150000	    0.370000	   20.566406
    0.4117	 -0.002000	  0.037000	  1.009500	   -0.430000	   -0.220000	    0.310000	   20.566406
    0.4217	 -0.003000	  0.037000	  1.008500	   -0.390000	   -0.160000	    0.330000	   20.578125
    0.4317	 -0.003000	  0.038500	  1.009000	   -0.420000	   -0.250000	    0.200000	   20.593750
    0.4417	 -0.002000	  0.036500	  1.009000	   -0.290000	   -0.160000	    0.270000	   20.597656
    0.4517	 -0.001000	  0.036000	  1.010500	   -0.510000	   -0.150000	    0.220000	   20.585938
    0.4617	 -0.002500	  0.038500	  1.010000	   -0.490000	   -0.150000	    0.240000	   20.578125
    0.4717	 -0.003000	  0.036000	  1.008500	   -0.520000	   -0.210000	    0.380000	   20.558594
    0.4817	 -0.002500	  0.037500	  1.009500	   -0.440000	   -0.090000	    0.260000	   20.574219
    0.4917	 -0.002500	  0.037000	  1.011500	   -0.260000	   -0.050000	    0.300000	   20.585938
    0.5017	 -0.003000	  0.036500	  1.010000	   -0.360000	   -0.120000	    0.280000	   20.597656
    0.5117	 -0.002000	  0.036500	  1.008500	   -0.330000	   -0.200000	    0.200000	   20.601563
    0.5217	 -0.003000	  0.038500	  1.010500	   -0.410000	   -0.240000	    0.270000	   20.578125
    0.5317	 -0.002500	  0.036000	  1.010000	   -0.410000	   -0.190000	    0.310000	   20.593750
    0.5417	 -0.003000	  0.038500	  1.009500	   -0.600000	   -0.320000	    0.270000	   20.609375
    0.5517	 -0.004000	  0.038000	  1.010500	   -0.500000	   -0.040000	    0.270000	   20.589844
    0.5617	 -0.002500	  0.037000	  1.008500	   -0.390000	   -0.140000	    0.230000	   20.597656
    0.5717	 -0.002500	  0.036000	  1.008500	   -0.360000	   -0.260000	    0.190000	   20.578125
    0.5817	 -0.002000	  0.037500	  1.009500	   -0.400000	   -0.160000	    0.390000	   20.582031
    0.5917	 -0.003500	  0.037000	  1.009000	   -0.320000	   -0.160000	    0.200000	   20.601563
    0.6018	 -0.001500	  0.037500	  1.008000	   -0.360000	   -0.090000	    0.150000	   20.566406
    0.6117	 -0.003000	  0.039000	  1.009500	   -0.370000	   -0.030000	    0.200000	   20.578125
    0.6217	 -0.002500	  0.037500	  1.010000	   -0.450000	    0.000000	    0.260000	   20.578125
    0.6317	 -0.001500	  0.038500	  1.008000	   -0.390000	   -0.110000	    0.350000	   20.578125
    0.6417	 -0.002500	  0.037500	  1.010500	   -0.520000	   -0.200000	    0.270000	   20.566406
    0.6517	 -0.002000	  0.038500	  1.010000	   -0.420000	   -0.150000	    0.260000	   20.570313
    0.6617	 -0.001500	  0.038500	  1.008000	   -0.280000	   -0.110000	    0.210000	   20.570313
    0.6717	 -0.003500	  0.036000	  1.009000	   -0.450000	   -0.180000	    0.230000	   20.589844
    0.6817	 -0.002500	  0.038500	  1.010500	   -0.440000	   -0.110000	    0.270000	   20.578125
    0.6917	 -0.003000	  0.037500	  1.008500	   -0.500000	   -0.370000	    0.280000	   20.558594
    0.7018	 -0.003000	  0.037000	  1.011000	   -0.280000	   -0.130000	    0.250000	   20.554688
    0.7117	 -0.003000	  0.037000	  1.008500	   -0.400000	   -0.200000	    0.300000	   20.574219
    0.7217	 -0.002500	  0.037500	  1.008500	   -0.380000	   -0.100000	    0.260000	   20.562500
    0.7317	 -0.003500	  0.037000	  1.010500	   -0.350000	   -0.180000	    0.360000	   20.562500
    0.7417	 -0.001500	  0.037500	  1.009000	   -0.300000	   -0.150000	    0.240000	   20.570313
    0.7517	 -0.002000	  0.037000	  1.009000	   -0.430000	   -0.170000	    0.110000	   20.558594
    0.7617	 -0.002500	  0.036500	  1.010000	   -0.420000	   -0.220000	    0.250000	   20.574219
    0.7717	 -0.001500	  0.037000	  1.010500	   -0.480000	   -0.180000	    0.220000	   20.566406
    0.7817	 -0.001000	  0.038000	  1.010000	   -0.410000	   -0.220000	    0.190000	   20.566406
    0.7917	 -0.002000	  0.038000	  1.009000	   -0.320000	   -0.220000	    0.250000	   20.562500
    0.8018	 -0.002000	  0.037500	  1.010500	   -0.360000	   -0.050000	    0.220000	   20.562500
    0.8117	 -0.001500	  0.036500	  1.010000	   -0.370000	   -0.110000	    0.260000	   20.562500
    0.8217	 -0.003500	  0.038000	  1.010000	   -0.400000	   -0.060000	    0.190000	   20.593750
    0.8318	 -0.002500	  0.036500	  1.010000	   -0.420000	   -0.220000	    0.320000	   20.574219
    0.8417	 -0.002500	  0.038000	  1.008500	   -0.410000	   -0.130000	    0.160000	   20.566406
    0.8517	 -0.002500	  0.036500	  1.009000	   -0.480000	   -0.130000	    0.230000	   20.566406
    0.8617	 -0.004000	  0.037500	  1.009500	   -0.460000	   -0.150000	    0.260000	   20.578125
    0.8717	 -0.002500	  0.036500	  1.008500	   -0.420000	   -0.050000	    0.310000	   20.589844
    0.8817	 -0.003000	  0.038000	  1.009500	   -0.400000	   -0.130000	    0.260000	   20.585938
    0.8917	 -0.003500	  0.038000	  1.008500	   -0.390000	   -0.120000	    0.240000	   20.582031
    0.9017	 -0.004500	  0.038000	  1.009000	   -0.430000	   -0.130000	    0.220000	   20.593750
    0.9118	 -0.002000	  0.039000	  1.009500	   -0.450000	   -0.230000	    0.280000	   20.578125
    0.9217	 -0.003500	  0.037000	  1.008000	   -0.440000	   -0.230000	    0.300000	   20.562500
    0.9317	 -0.003500	  0.037500	  1.009000	   -0.520000	   -0.240000	    0.240000	   20.574219
    0.9417	 -0.001500	  0.038000	  1.009000	   -0.410000	   -0.170000	    0.240000	   20.578125
    0.9517	 -0.003500	  0.037500	  1.009500	   -0.410000	   -0.160000	    0.310000	   20.593750
    0.9617	 -0.002500	  0.037000	  1.010000	   -0.430000	   -0.170000	    0.240000	   20.589844
    0.9717	  0.000000	  0.038500	  1.010000	   -0.490000	   -0.090000	    0.360000	   20.589844
    0.9817	 -0.002000	  0.037000	  1.008500	   -0.360000	   -0.190000	    0.330000	   20.589844
    0.9917	 -0.003000	  0.038000	  1.010000	   -0.500000	   -0.280000	    0.230000	   20.570313
    1.0017	 -0.001500	  0.037500	  1.009500	   -0.480000	   -0.260000	    0.240000	   20.546875
    1.0117	 -0.002000	  0.037500	  1.008500	   -0.410000	   -0.290000	    0.270000	   20.574219
    1.0217	 -0.004500	  0.037000	  1.011500	   -0.500000	   -0.180000	    0.200000	   20.582031
    1.0318	 -0.001000	  0.037000	  1.006000	   -0.500000	   -0.060000	    0.240000	   20.570313
    1.0417	  0.018000	  0.021000	  0.978000	   -0.300000	    0.010000	    0.200000	   20.566406
    1.0517	  0.000500	  0.041500	  0.976500	   -0.490000	   -0.560000	    0.300000	   20.562500
    1.0617	 -0.043500	  0.040000	  1.005500	   -0.350000	   -0.690000	    0.320000	   20.570313
    1.0718	 -0.045000	  0.051500	  1.027500	   -0.520000	   -0.490000	    0.240000	   20.593750
    1.0817	 -0.028000	  0.053000	  1.053000	   -0.410000	   -0.360000	    0.360000	   20.582031
    1.0918	 -0.029500	  0.029000	  1.015500	   -0.660000	   -0.170000	    0.170000	   20.589844
    1.1018	  0.015500	  0.029500	  1.004500	   -0.240000	   -0.040000	    0.320000	   20.585938
    1.1118	  0.042000	  0.021000	  0.991000	   -0.660000	   -0.490000	    0.150000	   20.558594
    1.1218	  0.015500	  0.038000	  1.004500	   -0.210000	   -0.500000	    0.560000	   20.562500
    1.1318	  0.000500	  0.036500	  1.019500	   -0.640000	   -0.560000	    0.210000	   20.562500
    1.1418	  0.011500	  0.043500	  1.036500	   -0.480000	   -0.190000	    0.270000	   20.578125
    1.1518	  0.022500	  0.036500	  0.996500	   -0.440000	   -0.270000	    0.260000	   20.589844
    1.1618	  0.008500	  0.046500	  1.021000	   -0.470000	   -0.330000	    0.190000	   20.578125
    1.1718	  0.018500	  0.050500	  0.996500	   -0.340000	   -0.130000	    0.250000	   20.589844
    1.1818	  0.000500	  0.042500	  1.009000	   -0.400000	   -0.510000	    0.100000	   20.578125
    1.1918	 -0.042500	  0.058500	  1.047000	   -0.310000	   -0.110000	    0.140000	   20.582031
    1.2018	 -0.040500	  0.026500	  0.999500	   -0.520000	   -0.080000	    0.030000	   20.582031
    1.2118	 -0.018000	  0.036000	  1.035500	   -0.390000	    0.070000	    0.170000	   20.582031
    1.2218	 -0.006500	  0.011500	  1.002000	   -0.340000	    0.340000	    0.120000	   20.566406
    1.2318	  0.000500	  0.039000	  0.982500	   -0.540000	    0.070000	    0.210000	   20.566406
    1.2418	  0.013500	  0.021500	  1.005500	   -0.450000	   -0.060000	    0.210000	   20.574219
    1.2518	  0.022000	  0.042500	  1.025000	   -0.460000	    0.070000	    0.290000	   20.585938
    1.2618	  0.002500	  0.029500	  0.987500	   -0.660000	   -0.380000	    0.460000	   20.585938
    1.2718	  0.006000	  0.038000	  1.034500	   -0.420000	    0.000000	    0.280000	   20.566406
    1.2818	  0.037000	  0.034000	  1.014500	   -0.590000	    0.080000	    0.340000	   20.593750
    1.2918	  0.016500	  0.039000	  1.005500	   -0.490000	   -0.320000	    0.300000	   20.597656
    1.3018	  0.004000	  0.038500	  1.023000	   -0.250000	    0.040000	    0.350000	   20.578125
    1.3118	  0.022500	  0.034000	  1.000500	   -0.520000	    0.050000	    0.300000	   20.597656
    1.3218	 -0.010000	  0.038000	  1.018000	   -0.390000	   -0.160000	    0.250000	   20.609375
    1.3318	 -0.025000	  0.031500	  0.983500	    0.020000	    0.450000	    0.410000	   20.562500
    1.3418	 -0.030000	  0.055000	  0.996500	   -0.350000	   -0.270000	    0.290000	   20.562500
    1.3518	 -0.042500	  0.022500	  1.002500	   -0.420000	   -0.060000	    0.250000	   20.570313
    1.3618	 -0.028500	  0.049500	  0.985500	   -0.260000	    0.100000	    0.420000	   20.601563
    1.3718	 -0.048500	  0.039500	  1.014000	   -0.840000	   -0.660000	    0.260000	   20.582031
    1.3818	 -0.018500	  0.039500	  1.032000	   -0.390000	    0.220000	    0.410000	   20.558594
    1.3918	  0.036000	  0.042000	  0.989500	   -0.510000	   -0.190000	    0.240000	   20.570313
    1.4018	  0.010000	  0.020500	  1.009000	   -0.460000	   -0.480000	    0.290000	   20.574219
    1.4118	  0.047000	  0.040000	  1.016000	   -0.520000	   -0.150000	    0.400000	   20.589844
    1.4218	  0.069500	  0.012500	  0.981500	   -0.550000	   -0.590000	    0.320000	   20.589844
    1.4318	  0.011000	  0.054000	  1.040000	   -0.290000	   -0.820000	    0.530000	   20.582031
    1.4418	 -0.001000	  0.035500	  1.025000	   -0.570000	   -0.170000	    0.280000	   20.601563
    1.4518	  0.038500	  0.058000	  1.028000	   -0.180000	    0.000000	    0.350000	   20.621094
    1.4618	  0.007500	  0.036000	  1.022500	   -0.780000	   -0.160000	    0.160000	   20.609375
    1.4718	 -0.003000	  0.049000	  0.989500	    0.230000	    0.570000	    0.170000	   20.605469
    1.4818	 -0.012500	  0.050500	  0.985500	   -0.670000	   -0.500000	   -0.020000	   20.609375
    1.4918	 -0.088500	  0.007000	  1.008500	    0.090000	    0.110000	    0.090000	   20.566406
    1.5018	 -0.116000	  0.085500	  1.018000	   -0.470000	    0.200000	    0.000000	   20.574219
    1.5118	 -0.104500	  0.025000	  1.028000	   -0.670000	   -0.170000	   -0.010000	   20.570313
    1.5218	 -0.049500	  0.064000	  1.061000	   -0.620000	    0.480000	    0.020000	   20.574219
    1.5318	 -0.004000	  0.001000	  0.979500	   -0.860000	    0.160000	   -0.020000	   20.574219
    1.5418	  0.048500	  0.034500	  1.001500	   -0.460000	    0.340000	    0.290000	   20.593750
    1.5518	  0.089500	 -0.014000	  0.970500	   -0.690000	   -0.210000	    0.420000	   20.589844
    1.5618	  0.097500	  0.025500	  0.975500	   -0.280000	   -0.300000	    0.550000	   20.593750
    1.5718	  0.048000	 -0.011000	  0.928500	   -0.430000	   -0.630000	    0.490000	   20.593750
    1.5818	 -0.006000	  0.062500	  0.989500	    0.010000	   -0.860000	    0.710000	   20.585938
    1.5918	 -0.043000	  0.071500	  1.052000	   -1.090000	   -1.690000	    0.440000	   20.574219
    1.6018	 -0.045500	  0.064500	  1.100000	   -0.360000	   -0.290000	    0.450000	   20.574219
    1.6118	 -0.034500	  0.095000	  1.076000	   -0.700000	   -0.080000	    0.210000	   20.597656
    1.6218	 -0.006500	  0.031000	  1.042500	   -0.750000	    0.180000	   -0.050000	   20.601563
    1.6318	  0.094000	  0.004500	  0.960000	    0.120000	    0.850000	    0.230000	   20.613281
    1.6418	  0.002500	  0.045500	  0.943000	   -0.070000	   -0.890000	    0.460000	   20.582031
    1.6518	 -0.142500	 -0.025500	  0.993000	   -0.210000	   -0.340000	    0.210000	   20.582031
    1.6618	 -0.076500	  0.104500	  1.059000	    0.320000	    0.440000	    0.450000	   20.601563
    1.6718	 -0.108500	  0.030000	  1.064000	   -1.450000	   -0.460000	   -0.080000	   20.582031
    1.6818	 -0.024000	  0.073000	  1.047000	   -0.090000	    1.830000	    0.150000	   20.558594
    1.6918	  0.198000	  0.020500	  0.887000	   -1.210000	    0.610000	   -0.250000	   20.585938
    1.7018	  0.180000	  0.008500	  0.911500	    0.110000	   -0.360000	    0.090000	   20.593750
    1.7118	  0.011000	  0.062500	  0.925500	   -0.420000	   -2.220000	    0.200000	   20.597656
    1.7218	 -0.038000	  0.027500	  1.082500	   -0.650000	   -1.850000	    0.110000	   20.570313
    1.7318	 -0.039500	  0.044500	  1.118000	   -0.310000	   -0.500000	    0.050000	   20.566406
    1.7418	 -0.104000	  0.006500	  1.017000	   -0.630000	   -0.220000	    0.020000	   20.578125
    1.7518	  0.006500	  0.009500	  0.991500	   -0.540000	    0.820000	    0.080000	   20.582031
    1.7618	  0.112500	  0.024000	  0.936000	    0.050000	   -0.690000	    0.490000	   20.589844
    1.7718	 -0.027000	  0.073000	  1.070500	   -1.010000	   -1.630000	    0.360000	   20.570313
    1.7818	 -0.039500	  0.021000	  0.988000	   -0.040000	    0.010000	    0.610000	   20.593750
    1.7918	 -0.006000	  0.041000	  1.017500	   -0.680000	   -1.010000	    0.390000	   20.617188
    1.8018	 -0.092500	 -0.000500	  1.026000	    0.240000	   -0.340000	    0.600000	   20.609375
    1.8118	 -0.070000	  0.074500	  1.009500	   -0.610000	   -0.070000	    0.370000	   20.585938
    1.8218	  0.000500	  0.027500	  1.050500	   -0.760000	   -0.030000	    0.350000	   20.582031
    1.8318	  0.029500	  0.047500	  1.009500	   -0.460000	    0.720000	    0.230000	   20.570313
    1.8418	  0.012500	  0.045500	  0.955000	   -0.570000	   -0.610000	    0.280000	   20.585938
    1.8518	  0.052500	  0.043000	  1.043500	   -0.830000	   -0.380000	    0.150000	   20.585938
    1.8618	  0.103000	  0.030500	  1.013000	   -0.290000	   -0.210000	    0.270000	   20.589844
    1.8718	 -0.000500	  0.061500	  1.010500	   -0.610000	   -1.060000	    0.230000	   20.585938
    1.8818	 -0.039000	  0.017500	  1.028000	   -0.430000	    0.020000	    0.170000	   20.578125
    1.8918	  0.054500	  0.024500	  1.021000	   -0.410000	    0.530000	    0.060000	   20.597656
    1.9018	  0.018000	  0.009500	  0.959000	   -0.040000	   -0.370000	    0.240000	   20.605469
    1.9121	 -0.038000	  0.068500	  1.040000	   -0.430000	   -0.430000	    0.290000	   20.574219
    1.9218	  0.006500	  0.055000	  1.050000	   -0.550000	    0.000000	    0.170000	   20.582031
    1.9318	 -0.006500	  0.061500	  1.034000	   -0.500000	   -0.030000	   -0.040000	   20.585938
    1.9418	 -0.061500	  0.051500	  1.049000	   -0.100000	    0.020000	    0.190000	   20.593750
    1.9518	 -0.000500	  0.031500	  1.021500	   -0.420000	    0.870000	   -0.020000	   20.605469
    1.9618	  0.014000	  0.015000	  0.987500	   -0.290000	    0.290000	    0.250000	   20.597656
    1.9718	 -0.035000	  0.019000	  1.007000	   -0.200000	    0.590000	    0.300000	   20.597656
    1.9818	  0.012000	  0.045000	  0.983500	    0.020000	    0.780000	    0.310000	   20.597656
    1.9918	  0.021500	  0.025500	  1.006500	   -0.720000	   -0.250000	    0.100000	   20.582031
    2.0018	  0.002000	  0.071500	  1.024000	    0.060000	    0.570000	    0.510000	   20.601563
    2.0118	  0.020000	 -0.004000	  0.971500	   -1.000000	   -0.120000	    0.060000	   20.617188
    2.0218	  0.015000	  0.045000	  1.037500	   -0.050000	    0.320000	    0.550000	   20.621094
    2.0318	 -0.006500	  0.017000	  0.977500	   -0.700000	   -0.050000	    0.250000	   20.578125
    2.0418	  0.006500	  0.066000	  1.038000	   -0.070000	    0.350000	    0.470000	   20.593750
    2.0518	  0.042000	  0.027000	  0.980000	   -0.530000	    0.190000	    0.040000	   20.593750
    2.0618	 -0.002500	  0.051500	  0.993500	   -0.230000	   -0.110000	    0.410000	   20.585938
    2.0718	 -0.050500	  0.013500	  1.006000	   -0.670000	   -0.430000	    0.310000	   20.582031
    2.0818	 -0.020000	  0.029500	  1.066000	   -0.630000	    0.380000	    0.280000	   20.589844
    2.0918	  0.006500	  0.026500	  0.993500	   -0.190000	    0.530000	    0.510000	   20.601563
    2.1018	 -0.033500	  0.044500	  1.016000	   -0.560000	    0.190000	    0.280000	   20.585938
    2.1118	  0.000000	  0.053000	  0.990500	   -0.050000	    0.490000	    0.490000	   20.570313
    2.1218	  0.043500	  0.058500	  1.010500	   -0.840000	    0.080000	    0.060000	   20.589844
    2.1318	  0.011000	  0.037500	  0.983000	    0.090000	    0.130000	    0.390000	   20.582031
    2.1418	 -0.026500	  0.036000	  0.990000	   -0.730000	   -0.150000	    0.120000	   20.574219
    2.1518	 -0.020500	  0.034000	  1.011000	   -0.270000	   -0.100000	    0.330000	   20.585938
    2.1618	  0.014500	  0.024000	  1.036500	   -0.850000	   -0.150000	    0.160000	   20.574219
    2.1718	 -0.003500	  0.040000	  0.993000	   -0.030000	   -0.030000	    0.430000	   20.593750
    2.1818	 -0.018000	  0.032500	  1.001500	   -0.670000	   -0.210000	    0.070000	   20.582031
    2.1918	  0.000000	  0.057000	  1.030000	   -0.270000	   -0.140000	    0.530000	   20.582031
    2.2018	  0.003500	  0.028000	  1.024500	   -0.730000	   -0.130000	    0.070000	   20.578125
    2.2118	 -0.020500	  0.062000	  1.015500	   -0.020000	    0.160000	    0.330000	   20.562500
    2.2218	 -0.020500	  0.014000	  0.973500	   -0.450000	   -0.060000	    0.230000	   20.582031
    2.2318	 -0.033000	  0.052500	  1.024500	   -0.300000	   -0.290000	    0.480000	   20.589844
    2.2418	 -0.019000	  0.014500	  1.003500	   -0.560000	    0.330000	    0.120000	   20.597656
    2.2518	  0.020500	  0.058500	  0.990500	   -0.190000	    0.320000	    0.230000	   20.585938
    2.2618	 -0.008000	  0.017000	  0.982500	   -0.590000	   -0.750000	    0.250000	   20.601563
    2.2718	 -0.037000	  0.068500	  1.052000	   -0.430000	   -0.070000	    0.320000	   20.597656
    2.2818	  0.002000	  0.026000	  1.006500	   -0.590000	    0.080000	    0.150000	   20.597656
    2.2918	 -0.004000	  0.058000	  1.022500	   -0.160000	   -0.030000	    0.340000	   20.570313
    2.3018	 -0.040000	  0.012000	  0.984500	   -0.210000	   -0.010000	    0.290000	   20.574219
    2.3118	  0.009000	  0.046500	  0.997500	   -0.470000	    0.170000	    0.360000	   20.613281
    2.3218	  0.029000	  0.007000	  0.988500	   -0.440000	   -0.330000	    0.170000	   20.601563
    2.3318	 -0.010000	  0.060500	  1.016000	   -0.340000	   -0.160000	    0.350000	   20.601563
    2.3418	 -0.004000	  0.026500	  0.976500	   -0.660000	   -0.290000	    0.180000	   20.589844
    2.3518	  0.005500	  0.060500	  1.050000	   -0.880000	   -0.660000	    0.240000	   20.585938
    2.3618	 -0.011500	  0.027000	  1.011000	   -0.320000	   -0.060000	    0.180000	   20.566406
    2.3718	 -0.018000	  0.059000	  1.007500	   -0.400000	   -0.100000	    0.040000	   20.585938
    2.3818	 -0.011500	  0.021500	  0.992500	   -0.300000	   -0.350000	    0.130000	   20.593750
    2.3918	  0.002000	  0.056500	  1.031500	   -0.500000	   -0.050000	    0.030000	   20.562500
    2.4018	  0.001000	  0.017500	  0.985000	   -0.260000	   -0.360000	    0.170000	   20.554688
    2.4118	 -0.005500	  0.050500	  1.016500	   -0.620000	   -0.300000	    0.130000	   20.570313
    2.4218	 -0.014500	  0.017000	  0.986500	   -0.490000	   -0.600000	    0.180000	   20.566406
    2.4318	 -0.013000	  0.039000	  1.042500	   -0.850000	   -0.310000	    0.090000	   20.589844
    2.4418	  0.006500	  0.026000	  0.988000	   -0.240000	   -0.080000	    0.220000	   20.593750
    2.4518	  0.001000	  0.047500	  1.003500	   -0.540000	   -0.420000	    0.120000	   20.617188
    2.4618	 -0.006000	  0.036500	  0.997500	   -0.310000	   -0.490000	    0.270000	   20.582031
    2.4719	  0.015500	  0.047000	  1.020000	   -0.680000	   -0.690000	    0.150000	   20.578125
    2.4818	  0.001500	  0.028500	  1.017500	   -0.290000	   -0.680000	    0.290000	   20.589844
    2.4918	 -0.016000	  0.039500	  1.013500	   -0.420000	   -0.250000	    0.210000	   20.589844
    2.5018	 -0.010500	  0.020500	  0.987500	   -0.370000	   -0.780000	    0.490000	   20.578125
    2.5118	 -0.002000	  0.045000	  1.055500	   -0.750000	   -0.590000	    0.280000	   20.585938
    2.5218	  0.006500	  0.034000	  0.976000	   -0.200000	   -0.090000	    0.370000	   20.574219
    2.5318	  0.006500	  0.047500	  1.007500	   -0.560000	   -0.570000	    0.130000	   20.609375
    2.5418	 -0.007500	  0.042000	  1.013500	   -0.330000	   -0.670000	    0.370000	   20.601563
    2.5518	 -0.005500	  0.042500	  1.028500	   -0.770000	   -0.330000	    0.160000	   20.578125
    2.5618	  0.001500	  0.031000	  1.012000	   -0.120000	   -0.440000	    0.200000	   20.554688
    2.5719	 -0.001500	  0.030500	  1.012500	   -0.670000	   -0.140000	    0.230000	   20.574219
    2.5818	 -0.008500	  0.038000	  0.983000	   -0.300000	   -0.520000	    0.380000	   20.578125
    2.5918	  0.006000	  0.032000	  1.050000	   -0.910000	   -0.390000	    0.080000	   20.578125
    2.6018	  0.027500	  0.044000	  0.989000	   -0.070000	    0.030000	    0.390000	   20.570313
    2.6118	 -0.012500	  0.035500	  0.997500	   -0.830000	   -0.720000	    0.230000	   20.582031
    2.6218	 -0.020000	  0.051500	  1.030000	   -0.170000	   -0.240000	    0.360000	   20.605469
    2.6318	  0.016000	  0.028000	  1.018500	   -0.880000	   -0.130000	    0.170000	   20.585938
    2.6418	 -0.008500	  0.049000	  1.021000	   -0.100000	   -0.220000	    0.320000	   20.597656
    2.6518	 -0.008000	  0.022000	  0.993500	   -0.610000	    0.110000	    0.090000	   20.570313
    2.6618	  0.013000	  0.047500	  1.000000	   -0.320000	   -0.390000	    0.250000	   20.578125
    2.6719	  0.001500	  0.025500	  1.050000	   -0.760000	   -0.170000	    0.130000	   20.593750
    2.6818	  0.007500	  0.057000	  0.999500	   -0.190000	    0.340000	    0.260000	   20.605469
    2.6918	  0.003500	  0.024500	  0.987500	   -0.600000	   -0.200000	   -0.020000	   20.593750
    2.7018	 -0.013000	  0.057000	  1.035500	   -0.170000	   -0.140000	    0.370000	   20.589844
    2.7118	  0.013000	  0.016000	  0.999000	   -0.640000	    0.220000	    0.040000	   20.589844
    2.7218	  0.014500	  0.050000	  0.999000	   -0.100000	    0.090000	    0.270000	   20.582031
    2.7318	 -0.009000	  0.015000	  0.993500	   -0.570000	   -0.310000	    0.170000	   20.589844
    2.7418	 -0.007500	  0.050000	  1.019000	   -0.400000	   -0.240000	    0.370000	   20.617188
    2.7518	  0.001500	  0.018500	  1.028500	   -0.710000	   -0.210000	    0.110000	   20.609375
    2.7618	 -0.009000	  0.054000	  1.018500	   -0.150000	    0.350000	    0.360000	   20.585938
    2.7719	 -0.010500	  0.015000	  0.977500	   -0.550000	    0.140000	    0.180000	   20.601563
    2.7818	 -0.000500	  0.052000	  1.021000	   -0.290000	   -0.090000	    0.520000	   20.609375
    2.7918	  0.000000	  0.016000	  1.019500	   -0.550000	   -0.090000	    0.190000	   20.640625
    2.8018	  0.000500	  0.057000	  0.994500	   -0.210000	    0.250000	    0.380000	   20.605469
    2.8118	  0.006000	  0.016500	  0.984500	   -0.470000	   -0.240000	    0.200000	   20.617188
    2.8218	 -0.003000	  0.055000	  1.037500	   -0.340000	   -0.290000	    0.390000	   20.582031
    2.8319	 -0.005500	  0.020000	  1.013500	   -0.720000	   -0.110000	    0.240000	   20.597656
    2.8418	  0.006000	  0.058000	  1.012500	   -0.240000	    0.160000	    0.450000	   20.585938
    2.8518	  0.001000	  0.015500	  0.992500	   -0.550000	   -0.200000	    0.240000	   20.589844
    2.8618	 -0.009500	  0.066000	  1.023000	   -0.370000	   -0.150000	    0.400000	   20.589844
    2.8718	  0.004000	  0.015500	  1.006500	   -0.610000	   -0.050000	    0.270000	   20.593750
    2.8818	  0.006000	  0.068500	  1.022500	   -0.180000	    0.290000	    0.280000	   20.597656
    2.8918	 -0.013500	  0.018000	  0.976500	   -0.540000	   -0.340000	    0.270000	   20.593750
    2.9018	 -0.017000	  0.059500	  1.042000	   -0.500000	   -0.110000	    0.280000	   20.597656
    2.9118	  0.003500	  0.011500	  1.011000	   -0.410000	    0.080000	    0.280000	   20.613281
    2.9222	  0.001500	  0.065000	  1.002000	   -0.490000	    0.180000	    0.300000	   20.613281
    2.9318	 -0.011000	  0.016000	  0.986000	   -0.340000	   -0.310000	    0.190000	   20.582031
    2.9418	  0.004000	  0.063000	  1.040500	   -0.610000	   -0.090000	    0.220000	   20.574219
    2.9518	  0.008000	  0.014500	  0.996500	   -0.330000	   -0.050000	    0.240000	   20.585938
    2.9618	 -0.004500	  0.060500	  1.014500	   -0.320000	    0.200000	    0.240000	   20.605469
    2.9718	 -0.006500	  0.011000	  0.980500	   -0.400000	   -0.140000	    0.220000	   20.605469
    2.9819	 -0.008000	  0.058000	  1.038500	   -0.500000	   -0.260000	    0.320000	   20.593750
    2.9918	 -0.008000	  0.012500	  1.000000	   -0.400000	    0.240000	    0.070000	   20.597656
    3.0018	  0.001000	  0.057000	  1.008000	   -0.330000	    0.300000	    0.320000	   20.613281
    3.0118	 -0.013000	  0.019500	  0.987000	   -0.370000	   -0.390000	    0.340000	   20.593750
    3.0218	 -0.015000	  0.061000	  1.049000	   -0.450000	   -0.030000	    0.270000	   20.585938
    3.0319	 -0.003500	  0.017000	  1.007500	   -0.300000	    0.050000	    0.240000	   20.585938
    3.0418	 -0.006500	  0.056000	  1.010500	   -0.410000	    0.220000	    0.220000	   20.582031
    3.0518	 -0.012000	  0.018000	  0.983500	   -0.340000	   -0.170000	    0.260000	   20.601563
    3.0618	 -0.002500	  0.056500	  1.025000	   -0.660000	   -0.140000	    0.230000	   20.593750
    3.0719	 -0.001500	  0.017000	  0.996500	   -0.400000	   -0.010000	    0.190000	   20.605469
    3.0818	  0.001500	  0.053000	  1.005000	   -0.340000	    0.120000	    0.180000	   20.605469
    3.0918	 -0.008500	  0.015000	  0.976500	   -0.420000	   -0.470000	    0.290000	   20.585938
    3.1018	 -0.013000	  0.055500	  1.045000	   -0.600000	   -0.110000	    0.260000	   20.597656
    3.1118	 -0.005000	  0.015000	  1.006500	   -0.320000	   -0.020000	    0.190000	   20.597656
    3.1218	  0.000500	  0.057500	  1.013500	   -0.430000	    0.290000	    0.280000	   20.585938
    3.1319	 -0.010500	  0.017000	  0.980000	   -0.500000	   -0.490000	    0.270000	   20.570313
    3.1418	 -0.006500	  0.065000	  1.049500	   -0.740000	   -0.020000	    0.300000	   20.570313
    3.1518	  0.011500	  0.021500	  0.986500	   -0.220000	    0.020000	    0.340000	   20.578125
    3.1618	  0.004000	  0.064000	  1.011000	   -0.410000	   -0.050000	    0.230000	   20.582031
    3.1719	 -0.011500	  0.019000	  0.977500	   -0.310000	   -0.410000	    0.270000	   20.585938
    3.1818	  0.004500	  0.054500	  1.030000	   -0.620000	   -0.230000	    0.080000	   20.585938
    3.1919	  0.005500	  0.014500	  1.001000	   -0.170000	   -0.200000	    0.250000	   20.589844
    3.2018	 -0.006500	  0.055500	  1.006500	   -0.540000	    0.020000	    0.160000	   20.597656
    3.2119	 -0.008000	  0.018000	  0.978500	   -0.220000	   -0.590000	    0.280000	   20.578125
    3.2219	 -0.009000	  0.055500	  1.066000	   -0.870000	   -0.490000	    0.140000	   20.578125
    3.2319	 -0.008000	  0.029000	  0.998500	   -0.090000	   -0.180000	    0.360000	   20.601563
    3.2419	 -0.002000	  0.052500	  1.007500	   -0.740000	   -0.130000	    0.060000	   20.609375
    3.2519	 -0.003500	  0.018000	  0.986000	   -0.100000	   -0.420000	    0.390000	   20.605469
    3.2619	 -0.010000	  0.053000	  1.026500	   -0.650000	   -0.330000	    0.140000	   20.613281
    3.2719	 -0.012000	  0.017500	  1.009000	   -0.230000	   -0.230000	    0.280000	   20.597656
    3.2819	  0.012000	  0.045500	  1.007000	   -0.600000	    0.000000	    0.190000	   20.589844
    3.2919	 -0.001000	  0.020000	  0.975500	   -0.210000	   -0.670000	    0.480000	   20.601563
    3.3019	 -0.026500	  0.056000	  1.052500	   -0.800000	   -0.580000	    0.240000	   20.601563
    3.3119	  0.004000	  0.031000	  1.029500	   -0.370000	    0.050000	    0.250000	   20.582031
    3.3219	  0.021500	  0.056500	  1.001500	   -0.460000	   -0.020000	    0.230000	   20.578125
    3.3319	 -0.014500	  0.019500	  0.981000	   -0.050000	   -0.460000	    0.360000	   20.601563
    3.3419	 -0.006500	  0.058000	  1.035500	   -0.660000	   -0.310000	    0.210000	   20.605469
    3.3519	  0.016000	  0.024000	  1.010500	   -0.390000	   -0.190000	    0.150000	   20.566406
    3.3619	 -0.001500	  0.052500	  1.009000	   -0.500000	   -0.190000	    0.170000	   20.582031
    3.3719	 -0.003500	  0.016000	  0.982000	   -0.440000	   -0.350000	    0.320000	   20.613281
    3.3819	 -0.003000	  0.052500	  1.018000	   -0.630000	   -0.430000	    0.220000	   20.601563
    3.3919	 -0.022000	  0.033500	  1.046500	   -0.430000	   -0.270000	    0.100000	   20.597656
    3.4019	  0.008500	  0.053500	  1.006500	   -0.350000	    0.330000	    0.320000	   20.578125
    3.4119	  0.015500	  0.020000	  0.979000	   -0.490000	   -0.320000	    0.180000	   20.582031
    3.4219	 -0.027500	  0.048500	  1.021000	   -0.300000	   -0.410000	    0.300000	   20.582031
    3.4319	 -0.009500	  0.033000	  1.030000	   -0.630000	    0.080000	    0.200000	   20.578125
    3.4419	  0.031000	  0.042500	  1.002500	   -0.290000	    0.110000	    0.220000	   20.625000
    3.4519	 -0.004000	  0.020000	  0.989500	   -0.330000	   -0.400000	    0.230000	   20.640625
    3.4619	 -0.032000	  0.041500	  0.992000	   -0.380000	   -0.420000	    0.270000	   20.597656
    3.4719	  0.000500	  0.034000	  1.047500	   -0.660000	   -0.190000	    0.190000	   20.597656
    3.4819	  0.020500	  0.044000	  1.005000	   -0.090000	    0.120000	    0.320000	   20.605469
    3.4919	 -0.009500	  0.029500	  0.989000	   -0.350000	   -0.340000	    0.250000	   20.589844
    3.5019	 -0.018500	  0.036500	  0.995500	   -0.320000	   -0.540000	    0.280000	   20.601563
    3.5119	 -0.002500	  0.038500	  1.052500	   -0.770000	   -0.270000	    0.230000	   20.605469
    3.5219	  0.006500	  0.043000	  1.005000	   -0.260000	   -0.030000	    0.250000	   20.593750
    3.5319	  0.004000	  0.033500	  0.991500	   -0.570000	   -0.090000	    0.130000	   20.578125
    3.5419	 -0.002000	  0.028500	  0.978500	   -0.300000	   -0.560000	    0.270000	   20.578125
    3.5519	 -0.013000	  0.045000	  1.043500	   -0.700000	   -0.160000	    0.220000	   20.593750
    3.5619	  0.009500	  0.039500	  0.997500	   -0.240000	    0.120000	    0.330000	   20.605469
    3.5719	  0.021000	  0.035000	  1.006000	   -0.520000	    0.000000	    0.190000	   20.605469
    3.5819	 -0.015500	  0.029500	  0.986000	   -0.150000	   -0.490000	    0.310000	   20.621094
    3.5919	 -0.032500	  0.046500	  1.037500	   -0.630000	   -0.200000	    0.370000	   20.597656
    3.6019	  0.019000	  0.038000	  1.029000	   -0.290000	    0.130000	    0.340000	   20.585938
    3.6119	  0.025000	  0.037000	  1.001500	   -0.380000	    0.180000	    0.140000	   20.601563
    3.6219	 -0.027000	  0.027500	  0.973500	   -0.220000	   -0.620000	    0.370000	   20.593750
    3.6319	 -0.023000	  0.050500	  1.043000	   -0.590000	   -0.150000	    0.230000	   20.613281
    3.6419	  0.025500	  0.036000	  1.008500	   -0.160000	    0.270000	    0.130000	   20.609375
    3.6519	  0.006500	  0.046500	  1.012500	   -0.500000	   -0.100000	    0.180000	   20.597656
    3.6619	 -0.016000	  0.022000	  0.973500	   -0.190000	   -0.400000	    0.280000	   20.582031
    3.6719	 -0.008000	  0.049000	  1.020000	   -0.490000	   -0.390000	    0.100000	   20.601563
    3.6819	  0.001000	  0.031500	  1.034000	   -0.420000	   -0.070000	    0.310000	   20.601563
    3.6919	  0.013000	  0.046500	  1.007500	   -0.440000	    0.230000	    0.340000	   20.601563
    3.7019	 -0.000500	  0.019500	  0.975000	   -0.250000	   -0.600000	    0.230000	   20.609375
    3.7119	 -0.033000	  0.051000	  1.045500	   -0.610000	   -0.400000	    0.320000	   20.617188
    3.7219	 -0.001500	  0.034500	  1.015500	   -0.460000	    0.320000	    0.210000	   20.605469
    3.7319	  0.028000	  0.051500	  1.014500	   -0.500000	    0.060000	    0.280000	   20.589844
    3.7419	 -0.005500	  0.019500	  0.982500	   -0.270000	   -0.230000	    0.270000	   20.605469
    3.7519	 -0.029000	  0.053000	  1.003500	   -0.460000	   -0.090000	    0.350000	   20.582031
    3.7619	  0.003500	  0.025000	  1.034000	   -0.620000	   -0.160000	    0.160000	   20.609375
    3.7719	  0.022000	  0.050500	  1.010500	   -0.320000	    0.120000	    0.190000	   20.582031
    3.7819	 -0.013000	  0.021500	  0.979500	   -0.360000	   -0.310000	    0.250000	   20.605469
    3.7919	 -0.025000	  0.048000	  1.023500	   -0.650000	   -0.310000	    0.450000	   20.613281
    3.8019	  0.005000	  0.028500	  1.030500	   -0.540000	    0.040000	    0.260000	   20.597656
    3.8119	  0.014500	  0.058500	  1.007500	   -0.320000	    0.050000	    0.290000	   20.621094
    3.8219	 -0.003000	  0.019000	  0.986000	   -0.420000	   -0.220000	    0.220000	   20.625000
    3.8319	 -0.014000	  0.052000	  1.003500	   -0.430000	   -0.250000	    0.280000	   20.628906
    3.8419	 -0.015000	  0.028500	  1.028000	   -0.470000	   -0.240000	    0.230000	   20.609375
    3.8519	  0.011000	  0.051500	  1.009500	   -0.200000	    0.250000	    0.230000	   20.621094
    3.8619	  0.017000	  0.017000	  0.987000	   -0.320000	   -0.090000	    0.100000	   20.621094
    3.8719	 -0.025000	  0.045500	  0.998500	   -0.370000	   -0.710000	    0.380000	   20.613281
    3.8819	 -0.028000	  0.035500	  1.038000	   -0.640000	   -0.090000	    0.170000	   20.582031
    3.8919	  0.029500	  0.051000	  1.012500	   -0.250000	    0.150000	    0.250000	   20.578125
    3.9019	  0.014500	  0.024500	  0.998500	   -0.470000	   -0.280000	    0.160000	   20.613281
    3.9119	 -0.033000	  0.047000	  0.985000	   -0.230000	   -0.290000	    0.430000	   20.613281
    3.9219	 -0.009000	  0.033500	  1.031500	   -0.740000	   -0.060000	    0.090000	   20.601563
    3.9323	  0.028000	  0.042500	  1.011000	   -0.300000	   -0.080000	    0.180000	   20.613281
    3.9419	 -0.002000	  0.027500	  0.986500	   -0.550000	   -0.230000	    0.120000	   20.613281
    3.9519	 -0.027500	  0.033000	  0.984000	   -0.280000	   -0.470000	    0.300000	   20.597656
    3.9619	 -0.010500	  0.033500	  1.045500	   -0.730000	   -0.270000	    0.290000	   20.597656
    3.9719	  0.006000	  0.045000	  1.009500	   -0.170000	   -0.070000	    0.310000	   20.601563
    3.9819	 -0.004000	  0.034500	  1.014500	   -0.580000	    0.010000	    0.190000	   20.636719
    3.9919	 -0.006000	  0.032500	  0.986500	   -0.260000	   -0.420000	    0.340000	   20.632813
    4.0019	 -0.014500	  0.037500	  1.035000	   -0.670000	   -0.240000	    0.180000	   20.601563
    4.0119	 -0.003000	  0.044500	  1.009500	   -0.260000	   -0.010000	    0.390000	   20.597656
    4.0219	  0.020500	  0.036500	  1.003500	   -0.520000	    0.020000	    0.100000	   20.609375
    4.0319	 -0.000500	  0.031000	  0.982500	   -0.270000	   -0.490000	    0.330000	   20.582031
    4.0419	 -0.030000	  0.038000	  1.034000	   -0.760000	   -0.210000	    0.190000	   20.597656
    4.0519	  0.008500	  0.041500	  0.999000	   -0.290000	    0.140000	    0.310000	   20.597656
    4.0619	  0.022000	  0.034000	  1.014000	   -0.590000	   -0.180000	    0.340000	   20.613281
    4.0719	 -0.020500	  0.036000	  0.999000	   -0.340000	   -0.430000	    0.310000	   20.621094
    4.0819	 -0.028000	  0.036500	  1.023500	   -0.720000	   -0.230000	    0.290000	   20.636719
    4.0919	  0.014000	  0.040500	  1.019000	   -0.230000	    0.110000	    0.400000	   20.605469
    4.1019	  0.015500	  0.040000	  1.012500	   -0.610000	    0.010000	    0.330000	   20.613281
    4.1119	 -0.009000	  0.034500	  0.975500	   -0.270000	   -0.230000	    0.310000	   20.609375
    4.1219	 -0.015000	  0.042500	  1.038500	   -0.840000	   -0.230000	    0.040000	   20.593750
    4.1319	  0.005000	  0.040500	  0.999000	   -0.220000	    0.110000	    0.270000	   20.609375
    4.1419	  0.010000	  0.043000	  1.006500	   -0.610000	    0.000000	   -0.020000	   20.605469
    4.1519	  0.002000	  0.027500	  0.992500	   -0.290000	   -0.360000	    0.250000	   20.585938
    4.1619	 -0.014000	  0.041000	  1.021500	   -0.630000	   -0.350000	    0.100000	   20.593750
    4.1719	 -0.009000	  0.034500	  1.015500	   -0.270000	   -0.090000	    0.200000	   20.613281
    4.1819	  0.018000	  0.040000	  1.018000	   -0.640000	    0.160000	    0.150000	   20.640625
    4.1919	  0.001500	  0.024000	  0.980500	   -0.230000	   -0.570000	    0.260000	   20.640625
    4.2019	 -0.035500	  0.045500	  1.044500	   -0.660000	   -0.310000	    0.180000	   20.613281
    4.2119	 -0.001000	  0.030500	  0.994000	   -0.230000	    0.070000	    0.270000	   20.636719
    4.2219	  0.018000	  0.046500	  1.015000	   -0.630000	   -0.130000	    0.140000	   20.609375
    4.2319	 -0.014500	  0.023500	  0.984500	   -0.290000	   -0.510000	    0.280000	   20.601563
    4.2419	 -0.016500	  0.045000	  1.023000	   -0.690000	   -0.080000	    0.140000	   20.605469
    4.2519	  0.007000	  0.025500	  1.006000	   -0.230000	   -0.090000	    0.280000	   20.589844
    4.2619	 -0.004000	  0.049000	  1.018500	   -0.600000	   -0.020000	    0.200000	   20.613281
    4.2720	 -0.008500	  0.024500	  0.988000	   -0.240000	   -0.440000	    0.440000	   20.609375
    4.2819	  0.002500	  0.040500	  1.039000	   -0.730000	   -0.220000	    0.240000	   20.589844
    4.2919	 -0.005000	  0.035000	  0.995500	   -0.110000	    0.000000	    0.260000	   20.605469
    4.3019	 -0.006000	  0.049500	  1.003500	   -0.550000	   -0.130000	    0.140000	   20.621094
    4.3119	  0.014000	  0.025500	  0.997000	   -0.190000	   -0.440000	    0.420000	   20.613281
    4.3219	 -0.004500	  0.044500	  1.034500	   -0.730000	   -0.200000	    0.080000	   20.609375
    4.3319	 -0.021500	  0.030500	  0.980500	   -0.130000	    0.010000	    0.250000	   20.593750
    4.3419	  0.012000	  0.045500	  1.021000	   -0.600000	   -0.020000	    0.050000	   20.582031
    4.3519	  0.012500	  0.024500	  0.997000	   -0.090000	   -0.360000	    0.300000	   20.589844
    4.3619	 -0.023000	  0.046000	  1.038000	   -0.620000	   -0.210000	    0.220000	   20.585938
    4.3720	 -0.008500	  0.034500	  0.996500	    0.020000	    0.280000	    0.280000	   20.625000
    4.3819	  0.018000	  0.047500	  1.013500	   -0.670000	   -0.100000	    0.170000	   20.621094
    4.3919	 -0.004500	  0.031000	  0.996500	   -0.180000	   -0.350000	    0.330000	   20.613281
    4.4019	 -0.006500	  0.044000	  1.030500	   -0.810000	   -0.140000	    0.120000	   20.632813
    4.4119	  0.004000	  0.030500	  0.984000	    0.030000	    0.040000	    0.260000	   20.632813
    4.4219	 -0.002000	  0.046500	  1.007500	   -0.510000	   -0.140000	    0.200000	   20.617188
    4.4319	 -0.005500	  0.025500	  0.998000	   -0.240000	   -0.520000	    0.310000	   20.609375
    4.4419	  0.002000	  0.041500	  1.046500	   -0.780000	   -0.180000	    0.160000	   20.605469
    4.4519	 -0.016000	  0.038500	  0.992000	   -0.090000	   -0.210000	    0.300000	   20.625000
    4.4619	 -0.010500	  0.047500	  1.029500	   -0.710000	    0.060000	    0.240000	   20.640625
    4.4720	  0.016500	  0.027500	  0.992500	   -0.340000	   -0.160000	    0.360000	   20.613281
    4.4819	  0.006500	  0.035000	  1.040500	   -0.690000	   -0.210000	    0.220000	   20.621094
    4.4919	 -0.015000	  0.039000	  0.979500	   -0.150000	    0.190000	    0.280000	   20.617188
    4.5019	  0.006000	  0.039500	  1.001000	   -0.640000	   -0.200000	    0.060000	   20.617188
    4.5119	  0.009000	  0.038500	  1.030000	   -0.310000	   -0.380000	    0.390000	   20.601563
    4.5219	  0.000500	  0.030500	  1.016000	   -0.630000	    0.140000	    0.100000	   20.609375
    4.5319	 -0.012000	  0.049000	  0.982000	   -0.150000	   -0.110000	    0.380000	   20.605469
    4.5419	 -0.003000	  0.027000	  1.028500	   -0.620000	   -0.190000	    0.060000	   20.621094
    4.5519	  0.004500	  0.046500	  1.014000	   -0.220000	    0.010000	    0.460000	   20.617188
    4.5619	 -0.010000	  0.018500	  1.020500	   -0.660000	   -0.040000	    0.100000	   20.585938
    4.5720	 -0.010000	  0.053000	  1.008000	    0.080000	    0.480000	    0.370000	   20.597656
    4.5819	  0.012500	  0.019500	  0.976500	   -0.650000	   -0.180000	    0.120000	   20.597656
    4.5919	 -0.004500	  0.055500	  1.031000	   -0.220000	   -0.270000	    0.480000	   20.601563
    4.6019	 -0.015000	  0.026000	  1.019000	   -0.660000	   -0.010000	    0.130000	   20.601563
    4.6119	  0.005000	  0.057500	  0.992000	   -0.050000	    0.370000	    0.450000	   20.601563
    4.6219	  0.009500	  0.014500	  0.989500	   -0.610000	   -0.120000	    0.250000	   20.570313
    4.6319	 -0.014000	  0.056000	  1.017000	   -0.190000	   -0.310000	    0.470000	   20.570313
    4.6419	 -0.008000	  0.025000	  1.023500	   -0.750000	   -0.100000	    0.140000	   20.609375
    4.6519	  0.016000	  0.048000	  1.008000	   -0.120000	    0.280000	    0.320000	   20.628906
    4.6619	 -0.001500	  0.018500	  0.978500	   -0.570000	   -0.240000	    0.210000	   20.609375
    4.6720	 -0.025000	  0.057000	  1.018000	   -0.300000	   -0.400000	    0.420000	   20.613281
    4.6819	 -0.001000	  0.032500	  1.034000	   -0.730000	    0.080000	    0.180000	   20.628906
    4.6919	  0.008000	  0.052500	  1.004000	   -0.140000	    0.200000	    0.270000	   20.621094
    4.7019	 -0.017000	  0.023000	  0.981500	   -0.430000	    0.040000	    0.120000	   20.609375
    4.7119	 -0.009500	  0.045000	  0.991500	   -0.330000	   -0.450000	    0.330000	   20.621094
    4.7219	  0.003000	  0.033000	  1.051000	   -0.800000	   -0.300000	    0.130000	   20.644531
    4.7319	 -0.006500	  0.043500	  1.003000	   -0.090000	    0.060000	    0.320000	   20.625000
    4.7419	 -0.010500	  0.027000	  0.991500	   -0.540000	   -0.060000	    0.210000	   20.589844
    4.7519	  0.000500	  0.034000	  0.997500	   -0.300000	   -0.300000	    0.290000	   20.605469
    4.7619	 -0.001000	  0.040500	  1.052500	   -0.740000	   -0.180000	    0.130000	   20.625000
    4.7720	 -0.002000	  0.047500	  0.988000	   -0.270000	    0.050000	    0.390000	   20.621094
    4.7819	  0.007000	  0.028500	  1.000000	   -0.530000	   -0.180000	    0.110000	   20.636719
    4.7919	 -0.011000	  0.036500	  0.991000	   -0.150000	   -0.540000	    0.370000	   20.617188
    4.8019	 -0.025500	  0.037000	  1.038000	   -0.880000	   -0.240000	    0.190000	   20.625000
    4.8119	  0.007000	  0.039000	  1.000500	   -0.100000	    0.120000	    0.240000	   20.609375
    4.8219	  0.006500	  0.029500	  1.002500	   -0.610000	   -0.150000	    0.110000	   20.628906
    4.8320	 -0.029500	  0.040000	  0.990500	   -0.310000	   -0.510000	    0.360000	   20.625000
    4.8419	 -0.020500	  0.039000	  1.048500	   -0.840000	   -0.250000	    0.060000	   20.609375
    4.8519	  0.013000	  0.045500	  1.007500	   -0.280000	   -0.020000	    0.300000	   20.613281
    4.8619	  0.000500	  0.034500	  0.997500	   -0.630000	   -0.060000	    0.110000	   20.625000
    4.8719	 -0.015500	  0.038000	  0.977000	   -0.180000	   -0.360000	    0.420000	   20.621094
    4.8819	 -0.006500	  0.035500	  1.035000	   -0.870000	   -0.290000	    0.080000	   20.621094
    4.8919	  0.006500	  0.039000	  0.996000	   -0.100000	   -0.050000	    0.340000	   20.625000
    4.9020	  0.007000	  0.034000	  0.994500	   -0.650000	   -0.140000	    0.140000	   20.601563
    4.9119	 -0.009500	  0.034500	  0.994000	   -0.270000	   -0.640000	    0.390000	   20.593750
    4.9219	 -0.019000	  0.037000	  1.041000	   -0.800000	   -0.230000	    0.180000	   20.609375
    4.9323	 -0.000500	  0.051000	  1.007000	   -0.270000	   -0.040000	    0.340000	   20.613281
    4.9420	  0.011500	  0.035500	  1.019500	   -0.570000	   -0.180000	    0.160000	   20.617188
    4.9520	 -0.006500	  0.039000	  0.978000	   -0.070000	   -0.390000	    0.450000	   20.601563
    4.9620	 -0.014000	  0.034000	  1.038000	   -0.760000	   -0.340000	    0.170000	   20.589844
    4.9720	  0.009500	  0.040500	  0.992500	   -0.130000	    0.100000	    0.320000	   20.605469
    4.9820	  0.011500	  0.038000	  1.003500	   -0.680000	   -0.350000	    0.120000	   20.605469
    4.9920	 -0.006500	  0.039000	  1.009500	   -0.330000	   -0.390000	    0.340000	   20.617188
    5.0019	  0.007500	  0.028000	  1.019000	   -0.680000	   -0.190000	    0.170000	   20.597656
    5.0119	 -0.000500	  0.051500	  0.997000	   -0.050000	   -0.480000	    0.320000	   20.601563
    5.0220	 -0.002000	  0.032500	  1.031000	   -0.740000	   -0.170000	    0.150000	   20.601563
    5.0320	  0.009500	  0.040000	  0.994000	   -0.200000	   -0.240000	    0.340000	   20.609375
    5.0420	 -0.013500	  0.026000	  1.033500	   -0.770000	   -0.460000	    0.070000	   20.628906
    5.0520	 -0.009500	  0.049000	  1.001000	   -0.090000	    0.170000	    0.260000	   20.625000
    5.0619	  0.020000	  0.025500	  0.987000	   -0.820000	   -0.380000	    0.130000	   20.636719
    5.0719	 -0.003000	  0.043000	  1.027500	   -0.190000	   -0.590000	    0.310000	   20.632813
    5.0820	 -0.021000	  0.030500	  1.024500	   -0.750000	   -0.030000	    0.120000	   20.613281
    5.0920	 -0.001500	  0.050500	  0.983500	   -0.190000	   -0.050000	    0.330000	   20.593750
    5.1020	  0.015000	  0.023000	  1.025500	   -0.670000	   -0.320000	    0.070000	   20.601563
    5.1120	 -0.002500	  0.047500	  1.002000	   -0.130000	   -0.300000	    0.410000	   20.601563
    5.1220	 -0.017500	  0.028000	  1.022500	   -0.830000	   -0.270000	    0.070000	   20.617188
    5.1320	  0.010000	  0.043000	  1.016000	    0.010000	    0.190000	    0.370000	   20.625000
    5.1420	  0.015500	  0.028500	  0.988000	   -0.770000	   -0.150000	    0.240000	   20.613281
    5.1520	 -0.016000	  0.043000	  1.009500	   -0.220000	   -0.530000	    0.290000	   20.617188
    5.1620	 -0.003500	  0.037000	  1.042000	   -0.720000	   -0.170000	    0.200000	   20.609375
    5.1720	  0.006500	  0.048500	  0.988500	   -0.170000	   -0.090000	    0.300000	   20.652344
    5.1820	 -0.004500	  0.031500	  1.007500	   -0.560000	   -0.250000	    0.180000	   20.636719
    5.1920	  0.004000	  0.040000	  0.994500	   -0.180000	   -0.320000	    0.400000	   20.640625
    5.2020	 -0.004000	  0.035500	  1.040000	   -0.890000	   -0.280000	    0.150000	   20.636719
    5.2120	 -0.010500	  0.046000	  1.005000	   -0.010000	    0.120000	    0.390000	   20.609375
    5.2220	  0.010500	  0.031000	  1.004500	   -0.650000	    0.130000	    0.100000	   20.597656
    5.2320	  0.006500	  0.036000	  1.002000	   -0.290000	   -0.430000	    0.420000	   20.613281
    5.2420	 -0.010000	  0.038500	  1.037000	   -0.820000	   -0.110000	    0.190000	   20.640625
    5.2520	  0.002500	  0.047500	  0.988500	   -0.280000	    0.160000	    0.320000	   20.609375
    5.2620	  0.009500	  0.029000	  1.009500	   -0.680000	   -0.070000	    0.070000	   20.593750
    5.2720	 -0.009000	  0.040500	  0.996000	   -0.190000	   -0.210000	    0.310000	   20.632813
    5.2820	 -0.009000	  0.028500	  1.033000	   -0.730000	   -0.030000	    0.070000	   20.628906
    5.2920	  0.007500	  0.043500	  1.000500	   -0.130000	    0.270000	    0.220000	   20.632813
    5.3020	  0.002500	  0.027500	  1.002500	   -0.690000	   -0.050000	    0.080000	   20.617188
    5.3120	 -0.009500	  0.042000	  1.010000	   -0.400000	   -0.140000	    0.300000	   20.601563
    5.3220	 -0.006500	  0.030000	  1.040500	   -0.740000	    0.020000	    0.130000	   20.613281
    5.3320	 -0.002000	  0.053000	  0.998500	   -0.230000	    0.220000	    0.350000	   20.605469
    5.3420	  0.006500	  0.025000	  0.996500	   -0.610000	    0.120000	    0.090000	   20.609375
    5.3520	  0.000500	  0.044000	  0.998000	   -0.170000	   -0.100000	    0.360000	   20.609375
    5.3620	 -0.010500	  0.026500	  1.025000	   -0.740000	    0.100000	    0.100000	   20.609375
    5.3720	  0.001500	  0.046500	  0.995000	    0.000000	    0.300000	    0.300000	   20.613281
    5.3820	  0.012500	  0.025000	  0.991000	   -0.510000	    0.000000	    0.110000	   20.628906
    5.3920	 -0.014000	  0.041500	  1.013000	   -0.370000	   -0.360000	    0.330000	   20.640625
    5.4020	 -0.022500	  0.036000	  1.037500	   -0.680000	    0.120000	    0.230000	   20.617188
    5.4120	  0.005500	  0.048500	  1.006000	   -0.260000	    0.260000	    0.350000	   20.617188
    5.4220	  0.011000	  0.028000	  0.999500	   -0.470000	    0.240000	    0.170000	   20.617188
    5.4320	 -0.014500	  0.048000	  0.986500	   -0.270000	   -0.250000	    0.490000	   20.632813
    5.4420	 -0.011000	  0.036500	  1.040000	   -0.780000	   -0.100000	    0.220000	   20.660156
    5.4520	  0.005000	  0.043000	  0.990000	   -0.120000	    0.330000	    0.340000	   20.632813
    5.4620	 -0.004000	  0.030000	  0.998500	   -0.610000	   -0.120000	    0.210000	   20.601563
    5.4720	 -0.004000	  0.038000	  0.997500	   -0.430000	   -0.130000	    0.340000	   20.625000
    5.4820	 -0.005000	  0.034500	  1.033000	   -0.670000	   -0.140000	    0.230000	   20.648438
    5.4920	 -0.010500	  0.050000	  1.003500	   -0.280000	    0.070000	    0.380000	   20.640625
    5.5020	  0.006000	  0.027000	  0.999500	   -0.490000	    0.200000	    0.230000	   20.636719
    5.5120	  0.002500	  0.040000	  0.997000	   -0.210000	   -0.240000	    0.330000	   20.628906
    5.5220	 -0.021500	  0.032500	  1.035000	   -0.750000	   -0.160000	    0.270000	   20.640625
    5.5320	 -0.002500	  0.047000	  0.991000	   -0.140000	    0.240000	    0.280000	   20.628906
    5.5420	  0.013000	  0.030000	  1.006000	   -0.770000	   -0.110000	    0.150000	   20.636719
    5.5520	 -0.018000	  0.039000	  0.995500	   -0.190000	   -0.320000	    0.320000	   20.636719
    5.5620	 -0.031500	  0.034000	  1.036000	   -0.800000	   -0.080000	    0.080000	   20.632813
    5.5720	  0.002000	  0.042000	  0.997000	   -0.100000	    0.070000	    0.360000	   20.625000
    5.5820	  0.009000	  0.025500	  1.008500	   -0.550000	   -0.120000	    0.110000	   20.605469
    5.5920	 -0.023000	  0.040000	  0.990500	   -0.330000	   -0.370000	    0.390000	   20.617188
    5.6020	 -0.010000	  0.025500	  1.034500	   -0.850000	   -0.100000	    0.130000	   20.632813
    5.6120	  0.013000	  0.046500	  1.005000	    0.070000	    0.090000	    0.300000	   20.613281
    5.6220	 -0.007000	  0.030500	  0.990500	   -0.800000	   -0.320000	    0.190000	   20.605469
    5.6320	 -0.013500	  0.048500	  1.010500	   -0.200000	   -0.420000	    0.380000	   20.609375
    5.6420	 -0.003500	  0.033000	  1.028000	   -0.670000	   -0.110000	    0.080000	   20.621094
    5.6520	 -0.015500	  0.051000	  0.992500	    0.040000	   -0.160000	    0.330000	   20.640625
    5.6620	  0.001000	  0.024000	  1.006500	   -0.630000	   -0.210000	    0.140000	   20.609375
    5.6720	  0.009000	  0.042000	  0.991000	   -0.200000	   -0.480000	    0.420000	   20.605469
    5.6820	 -0.026500	  0.028000	  1.038500	   -0.860000	   -0.520000	    0.130000	   20.621094
    5.6920	 -0.010500	  0.050500	  1.004500	    0.150000	    0.230000	    0.270000	   20.640625
    5.7020	  0.019000	  0.027500	  1.001500	   -0.750000	   -0.420000	    0.120000	   20.632813
    5.7120	 -0.008000	  0.048500	  1.010000	   -0.170000	   -0.480000	    0.400000	   20.636719
    5.7220	 -0.013500	  0.034000	  1.024500	   -0.610000	   -0.220000	    0.160000	   20.656250
    5.7320	  0.007000	  0.052500	  0.988500	   -0.220000	   -0.310000	    0.370000	   20.628906
    5.7420	  0.004000	  0.026500	  1.011000	   -0.670000	   -0.490000	    0.040000	   20.617188
    5.7520	 -0.003000	  0.053000	  1.003500	   -0.160000	   -0.430000	    0.430000	   20.628906
    5.7620	 -0.009500	  0.022500	  1.016500	   -0.720000	   -0.580000	    0.110000	   20.632813
    5.7720	 -0.007000	  0.053000	  1.012500	   -0.080000	   -0.210000	    0.330000	   20.593750
    5.7820	  0.011000	  0.022000	  1.006500	   -0.680000	   -0.310000	    0.190000	   20.617188
    5.7920	  0.003500	  0.047000	  1.008500	   -0.300000	   -0.720000	    0.400000	   20.636719
    5.8020	 -0.015000	  0.028500	  1.029000	   -0.690000	   -0.310000	    0.050000	   20.625000
    5.8120	  0.002000	  0.057000	  0.991500	   -0.220000	   -0.090000	    0.280000	   20.613281
    5.8220	  0.018000	  0.021500	  1.000000	   -0.760000	   -0.510000	    0.120000	   20.617188
    5.8320	 -0.007500	  0.056000	  1.017000	   -0.200000	   -0.590000	    0.350000	   20.648438
    5.8420	 -0.014500	  0.020000	  1.011500	   -0.690000	   -0.330000	    0.090000	   20.636719
    5.8520	  0.008000	  0.049000	  1.008500	   -0.120000	   -0.010000	    0.290000	   20.648438
    5.8620	  0.006500	  0.012500	  0.997500	   -0.740000	   -0.500000	    0.260000	   20.656250
    5.8720	 -0.023000	  0.054500	  1.021000	   -0.370000	   -0.600000	    0.400000	   20.640625
    5.8820	 -0.013000	  0.020000	  1.030500	   -0.810000	   -0.190000	    0.110000	   20.632813
    5.8920	  0.014500	  0.061000	  1.015000	   -0.130000	    0.040000	    0.270000	   20.628906
    5.9020	 -0.000500	  0.016000	  0.981500	   -0.700000	   -0.310000	    0.010000	   20.613281
    5.9120	 -0.008500	  0.060000	  1.011500	   -0.260000	   -0.380000	    0.360000	   20.628906
    5.9224	  0.010500	  0.017000	  1.028000	   -0.750000	   -0.310000	    0.050000	   20.640625
    5.9320	 -0.002500	  0.057000	  0.995500	   -0.200000	   -0.130000	    0.350000	   20.628906
    5.9420	 -0.006000	  0.017500	  0.995500	   -0.640000	   -0.440000	    0.180000	   20.648438
    5.9520	  0.016500	  0.047500	  1.017500	   -0.400000	   -0.240000	    0.360000	   20.644531
    5.9620	 -0.002000	  0.025500	  1.025000	   -0.720000	   -0.440000	    0.140000	   20.644531
    5.9720	 -0.014500	  0.060500	  1.016500	   -0.220000	    0.060000	    0.340000	   20.648438
    5.9820	  0.019000	  0.017500	  0.993000	   -0.680000	    0.010000	    0.240000	   20.640625
    5.9920	  0.000000	  0.055000	  1.017000	   -0.350000	   -0.540000	    0.330000	   20.652344
    6.0020	 -0.021000	  0.018500	  1.024000	   -0.730000	    0.010000	    0.140000	   20.675781
    6.0120	  0.011000	  0.056000	  0.995500	   -0.190000	    0.380000	    0.320000	   20.652344
    6.0220	  0.010000	  0.014500	  0.991000	   -0.570000	   -0.430000	    0.210000	   20.636719
    6.0320	 -0.015000	  0.055000	  1.025500	   -0.440000	   -0.220000	    0.360000	   20.640625
    6.0420	 -0.004000	  0.019500	  1.012000	   -0.630000	   -0.030000	    0.100000	   20.632813
    6.0520	  0.004500	  0.062000	  1.018000	   -0.310000	    0.170000	    0.300000	   20.632813
    6.0620	  0.002500	  0.017500	  0.998000	   -0.410000	    0.050000	    0.120000	   20.636719
    6.0720	  0.000500	  0.052500	  1.007000	   -0.550000	   -0.320000	    0.360000	   20.636719
    6.0820	 -0.000500	  0.014500	  1.026000	   -0.550000	   -0.200000	    0.180000	   20.609375
    6.0920	  0.011000	  0.058000	  1.001000	   -0.180000	    0.360000	    0.250000	   20.640625
    6.1020	  0.005500	  0.014500	  0.976500	   -0.700000	   -0.480000	    0.260000	   20.625000
    6.1120	 -0.010500	  0.053000	  1.036500	   -0.290000	   -0.290000	    0.370000	   20.625000
    6.1220	 -0.012000	  0.022500	  1.013000	   -0.640000	    0.100000	    0.110000	   20.640625
    6.1320	 -0.000500	  0.057000	  1.003500	   -0.230000	    0.140000	    0.250000	   20.644531
    6.1420	  0.007500	  0.014500	  0.994000	   -0.380000	   -0.220000	    0.330000	   20.632813
    6.1520	 -0.012500	  0.056000	  1.024500	   -0.370000	   -0.410000	    0.350000	   20.621094
    6.1620	 -0.014000	  0.020000	  1.026500	   -0.640000	   -0.080000	    0.080000	   20.632813
    6.1720	  0.010500	  0.054000	  1.007500	   -0.240000	    0.190000	    0.330000	   20.632813
    6.1820	  0.005000	  0.017000	  0.990500	   -0.610000	   -0.250000	    0.360000	   20.625000
    6.1920	 -0.010000	  0.054000	  1.017500	   -0.360000	   -0.130000	    0.460000	   20.613281
    6.2020	  0.004500	  0.027000	  1.015000	   -0.570000	   -0.150000	    0.150000	   20.621094
    6.2120	  0.005500	  0.057000	  1.013000	   -0.160000	    0.110000	    0.300000	   20.632813
    6.2220	 -0.002500	  0.018000	  0.992500	   -0.440000	   -0.040000	    0.170000	   20.632813
    6.2320	 -0.001500	  0.053500	  1.015500	   -0.370000	   -0.210000	    0.350000	   20.636719
    6.2420	 -0.008000	  0.017500	  1.032000	   -0.520000	   -0.090000	    0.250000	   20.640625
    6.2520	 -0.002000	  0.061000	  1.011000	   -0.170000	    0.350000	    0.240000	   20.664063
    6.2620	  0.008000	  0.014000	  0.986500	   -0.600000	   -0.080000	    0.180000	   20.667969
    6.2720	 -0.009000	  0.059000	  1.036500	   -0.360000	   -0.070000	    0.410000	   20.636719
    6.2820	 -0.016500	  0.021500	  1.007000	   -0.610000	    0.120000	    0.110000	   20.628906
    6.2920	  0.007000	  0.063000	  1.010500	   -0.290000	    0.120000	    0.320000	   20.656250
    6.3020	  0.003500	  0.014000	  0.983000	   -0.580000	   -0.150000	    0.060000	   20.671875
    6.3120	 -0.015000	  0.058500	  1.013500	   -0.360000	   -0.090000	    0.300000	   20.656250
    6.3220	 -0.005500	  0.010000	  1.013500	   -0.660000	   -0.050000	    0.100000	   20.625000
    6.3320	  0.008500	  0.058000	  1.010000	   -0.170000	    0.260000	    0.120000	   20.640625
    6.3420	 -0.006500	  0.015500	  0.984000	   -0.350000	   -0.330000	    0.250000	   20.644531
    6.3520	 -0.015500	  0.056000	  1.046000	   -0.470000	   -0.300000	    0.360000	   20.632813
    6.3620	 -0.001000	  0.020500	  1.005000	   -0.390000	    0.290000	    0.120000	   20.648438
    6.3720	 -0.000500	  0.059500	  1.009500	   -0.280000	    0.190000	    0.230000	   20.667969
    6.3821	 -0.001000	  0.016500	  0.983000	   -0.340000	   -0.130000	    0.270000	   20.644531
    6.3920	 -0.000500	  0.061000	  1.012000	   -0.470000	   -0.210000	    0.190000	   20.632813
    6.4020	 -0.021500	  0.017500	  1.022500	   -0.500000	   -0.260000	    0.130000	   20.617188
    6.4120	 -0.003500	  0.055500	  1.004000	   -0.330000	    0.360000	    0.290000	   20.632813
    6.4220	  0.012000	  0.016500	  0.979000	   -0.390000	   -0.290000	    0.290000	   20.664063
    6.4320	 -0.019000	  0.057000	  1.037500	   -0.530000	   -0.500000	    0.310000	   20.656250
    6.4420	 -0.016000	  0.025500	  1.016000	   -0.490000	    0.160000	    0.140000	   20.628906
    6.4520	  0.020000	  0.058500	  1.002500	   -0.290000	    0.170000	    0.290000	   20.640625
    6.4620	  0.002000	  0.016500	  0.991000	   -0.360000	   -0.230000	    0.180000	   20.640625
    6.4721	 -0.020500	  0.064500	  1.015000	   -0.570000	   -0.220000	    0.320000	   20.625000
    6.4820	  0.003500	  0.016500	  1.010500	   -0.530000	   -0.120000	    0.260000	   20.632813
    6.4920	  0.011000	  0.062000	  1.011500	   -0.320000	   -0.030000	    0.390000	   20.640625
    6.5020	 -0.009500	  0.015000	  0.971500	   -0.480000	   -0.380000	    0.160000	   20.632813
    6.5120	 -0.010500	  0.056500	  1.027500	   -0.380000	   -0.450000	    0.340000	   20.625000
    6.5220	 -0.007500	  0.022500	  1.028500	   -0.580000	   -0.240000	    0.200000	   20.636719
    6.5320	 -0.009000	  0.065000	  1.013000	   -0.320000	    0.290000	    0.270000	   20.640625
    6.5420	  0.001500	  0.012500	  0.983500	   -0.370000	   -0.240000	    0.150000	   20.636719
    6.5520	 -0.002000	  0.054500	  1.022000	   -0.280000	   -0.350000	    0.250000	   20.636719
    6.5620	 -0.011500	  0.018500	  1.016000	   -0.800000	   -0.350000	    0.150000	   20.636719
    6.5720	  0.004500	  0.059500	  0.998500	   -0.300000	    0.030000	    0.270000	   20.644531
    6.5821	  0.002500	  0.015000	  0.986500	   -0.450000	   -0.520000	    0.080000	   20.656250
    6.5920	 -0.018000	  0.053000	  1.027500	   -0.450000	   -0.490000	    0.410000	   20.652344
    6.6020	 -0.013000	  0.023000	  1.021500	   -0.520000	   -0.250000	    0.170000	   20.664063
    6.6120	  0.005000	  0.059000	  1.012500	   -0.280000	    0.100000	    0.320000	   20.652344
    6.6220	  0.000500	  0.017500	  0.988500	   -0.360000	   -0.420000	    0.250000	   20.648438
    6.6320	 -0.013500	  0.051500	  1.016000	   -0.560000	   -0.440000	    0.330000	   20.664063
    6.6420	 -0.008000	  0.018000	  1.029500	   -0.560000	   -0.270000	    0.320000	   20.675781
    6.6520	  0.003500	  0.059000	  1.000500	   -0.300000	    0.040000	    0.310000	   20.644531
    6.6620	 -0.002500	  0.017500	  0.986500	   -0.530000	   -0.380000	    0.210000	   20.621094
    6.6721	  0.002000	  0.053500	  1.025000	   -0.440000	   -0.300000	    0.260000	   20.652344
    6.6820	  0.001500	  0.020000	  1.008000	   -0.490000	   -0.270000	    0.150000	   20.656250
    6.6920	 -0.003000	  0.064000	  1.005000	   -0.180000	    0.010000	    0.170000	   20.636719
    6.7020	  0.008000	  0.011500	  0.992000	   -0.450000	   -0.360000	    0.210000	   20.640625
    6.7120	 -0.002000	  0.056000	  1.026000	   -0.270000	   -0.410000	    0.340000	   20.648438
    6.7220	 -0.021000	  0.014000	  1.017500	   -0.560000	   -0.310000	    0.110000	   20.644531
    6.7320	  0.007000	  0.063500	  1.020500	   -0.190000	    0.200000	    0.280000	   20.644531
    6.7420	  0.020000	  0.007500	  0.980000	   -0.370000	   -0.380000	    0.190000	   20.625000
    6.7520	 -0.016000	  0.063000	  1.034500	   -0.350000	   -0.500000	    0.330000	   20.644531
    6.7620	 -0.016000	  0.019000	  1.005000	   -0.610000	   -0.060000	    0.220000	   20.648438
    6.7721	  0.018000	  0.064000	  1.010000	   -0.360000	    0.070000	    0.130000	   20.644531
    6.7820	  0.001500	  0.010000	  0.984000	   -0.280000	   -0.410000	    0.110000	   20.667969
    6.7920	 -0.010000	  0.058000	  1.022500	   -0.470000	   -0.290000	    0.300000	   20.656250
    6.8020	  0.004500	  0.010000	  1.008000	   -0.520000	   -0.120000	    0.160000	   20.664063
    6.8120	  0.005000	  0.059000	  1.015500	   -0.180000	    0.000000	    0.380000	   20.640625
    6.8220	  0.000000	  0.009500	  0.991500	   -0.480000	   -0.380000	    0.290000	   20.652344
    6.8321	 -0.002500	  0.055500	  1.034000	   -0.470000	   -0.400000	    0.340000	   20.664063
    6.8420	 -0.009000	  0.023000	  1.013500	   -0.430000	   -0.220000	    0.240000	   20.613281
    6.8520	  0.004500	  0.064000	  1.009000	   -0.340000	    0.020000	    0.280000	   20.625000
    6.8620	  0.012000	  0.015500	  0.982500	   -0.400000	   -0.390000	    0.270000	   20.640625
    6.8720	 -0.007500	  0.059000	  1.026500	   -0.440000	   -0.440000	    0.250000	   20.660156
    6.8820	 -0.016500	  0.018000	  1.016000	   -0.410000	   -0.270000	    0.210000	   20.636719
    6.8920	  0.010000	  0.058000	  1.009500	   -0.200000	    0.120000	    0.250000	   20.664063
    6.9020	  0.006000	  0.014500	  0.991000	   -0.350000	   -0.320000	    0.300000	   20.671875
    6.9120	 -0.012000	  0.057000	  1.036000	   -0.470000	   -0.230000	    0.220000	   20.656250
    6.9220	  0.003000	  0.021000	  1.013500	   -0.360000	    0.060000	    0.230000	   20.664063
    6.9324	  0.014500	  0.064000	  1.009500	   -0.280000	    0.050000	    0.290000	   20.652344
    6.9421	 -0.006000	  0.015500	  0.990500	   -0.350000	   -0.130000	    0.150000	   20.640625
    6.9521	 -0.001000	  0.060000	  1.023500	   -0.490000	   -0.220000	    0.270000	   20.628906
    6.9620	 -0.001500	  0.014500	  1.014500	   -0.480000	   -0.140000	    0.160000	   20.632813
    6.9721	 -0.007500	  0.062000	  1.016000	   -0.310000	    0.170000	    0.290000	   20.652344
    6.9821	  0.006000	  0.012500	  0.976000	   -0.410000	   -0.080000	    0.110000	   20.648438
    6.9920	 -0.002500	  0.055500	  1.040000	   -0.450000	   -0.410000	    0.430000	   20.628906
    7.0021	 -0.027000	  0.020500	  1.022500	   -0.530000	   -0.090000	    0.160000	   20.640625
    7.0121	  0.001000	  0.065000	  1.014500	   -0.350000	    0.320000	    0.210000	   20.644531
    7.0221	  0.015500	  0.011500	  0.986500	   -0.320000	   -0.060000	    0.170000	   20.621094
    7.0321	 -0.025000	  0.067500	  1.028000	   -0.480000	   -0.180000	    0.350000	   20.613281
    7.0421	 -0.024000	  0.009000	  0.999000	   -0.440000	    0.210000	    0.130000	   20.648438
    7.0521	  0.036500	  0.062500	  1.012500	   -0.320000	    0.280000	    0.290000	   20.652344
    7.0621	 -0.001500	  0.002500	  0.971000	   -0.420000	   -0.390000	    0.320000	   20.664063
    7.0721	 -0.047000	  0.063000	  1.022500	   -0.550000	   -0.270000	    0.320000	   20.632813
    7.0821	  0.006000	  0.012000	  1.013000	   -0.470000	    0.130000	    0.280000	   20.628906
    7.0921	  0.029000	  0.064000	  1.020500	   -0.310000	    0.200000	    0.340000	   20.644531
    7.1021	 -0.022500	  0.018000	  0.973500	   -0.340000	   -0.390000	    0.360000	   20.640625
    7.1121	 -0.017000	  0.058500	  1.027500	   -0.600000	   -0.260000	    0.270000	   20.648438
    7.1221	  0.020000	  0.017500	  1.020000	   -0.450000	    0.080000	    0.130000	   20.621094
    7.1321	  0.001000	  0.063000	  1.001500	   -0.280000	   -0.100000	    0.370000	   20.640625
    7.1421	 -0.023500	  0.015000	  0.976000	   -0.460000	   -0.170000	    0.210000	   20.652344
    7.1521	  0.008000	  0.055000	  1.024500	   -0.510000	   -0.210000	    0.240000	   20.636719
    7.1621	  0.003000	  0.019500	  1.007500	   -0.560000	   -0.220000	    0.230000	   20.632813
    7.1721	 -0.016000	  0.063000	  1.005500	   -0.290000	   -0.050000	    0.200000	   20.648438
    7.1821	  0.000500	  0.010000	  0.985500	   -0.510000	   -0.260000	    0.150000	   20.617188
    7.1921	 -0.002000	  0.059000	  1.029000	   -0.400000	   -0.570000	    0.280000	   20.628906
    7.2021	 -0.024000	  0.018000	  1.020000	   -0.450000	   -0.250000	    0.190000	   20.660156
    7.2121	  0.003500	  0.061000	  1.006500	   -0.230000	    0.170000	    0.280000	   20.660156
    7.2221	  0.013000	  0.010500	  0.978500	   -0.460000	   -0.440000	    0.100000	   20.664063
    7.2321	 -0.018000	  0.062500	  1.029000	   -0.410000	   -0.540000	    0.380000	   20.636719
    7.2421	 -0.016500	  0.023000	  1.008500	   -0.600000	   -0.260000	    0.150000	   20.640625
    7.2521	  0.011500	  0.062500	  1.013000	   -0.380000	   -0.050000	    0.300000	   20.667969
    7.2621	  0.007000	  0.012000	  0.979000	   -0.400000	   -0.340000	    0.270000	   20.648438
    7.2721	 -0.015000	  0.056000	  1.010500	   -0.320000	   -0.620000	    0.380000	   20.625000
    7.2821	 -0.012000	  0.019500	  1.025500	   -0.670000	   -0.260000	    0.150000	   20.625000
    7.2921	  0.019000	  0.059000	  1.017000	   -0.080000	    0.240000	    0.320000	   20.628906
    7.3021	  0.008000	  0.012000	  0.978000	   -0.490000	   -0.540000	    0.230000	   20.640625
    7.3121	 -0.023500	  0.057000	  1.027500	   -0.460000	   -0.440000	    0.360000	   20.656250
    7.3221	 -0.003500	  0.031000	  1.023500	   -0.620000	   -0.210000	    0.210000	   20.675781
    7.3321	  0.024500	  0.061000	  1.018500	   -0.360000	    0.020000	    0.300000	   20.660156
    7.3421	 -0.001000	  0.019000	  0.978000	   -0.430000	   -0.300000	    0.190000	   20.667969
    7.3521	 -0.018500	  0.054000	  1.011000	   -0.360000	   -0.580000	    0.330000	   20.667969
    7.3621	 -0.003500	  0.022000	  1.028500	   -0.600000	   -0.220000	    0.170000	   20.648438
    7.3721	  0.009000	  0.050000	  1.018500	   -0.310000	   -0.050000	    0.270000	   20.644531
    7.3821	 -0.005500	  0.017000	  0.990500	   -0.590000	   -0.180000	    0.170000	   20.660156
    7.3921	 -0.010000	  0.044000	  1.009500	   -0.390000	   -0.410000	    0.310000	   20.675781
    7.4021	 -0.002000	  0.028000	  1.034000	   -0.720000	   -0.210000	    0.160000	   20.652344
    7.4121	  0.008500	  0.055000	  1.018000	   -0.250000	    0.120000	    0.170000	   20.656250
    7.4221	  0.007000	  0.021500	  0.972500	   -0.630000	   -0.260000	    0.180000	   20.656250
    7.4321	 -0.009000	  0.046000	  1.014000	   -0.460000	   -0.600000	    0.310000	   20.671875
    7.4421	 -0.013500	  0.032500	  1.031500	   -0.560000	    0.000000	    0.150000	   20.660156
    7.4521	  0.006500	  0.046500	  1.001500	   -0.380000	    0.060000	    0.240000	   20.640625
    7.4621	  0.016500	  0.025000	  1.001000	   -0.540000	   -0.050000	    0.200000	   20.656250
    7.4721	 -0.004500	  0.037000	  0.994500	   -0.390000	   -0.370000	    0.380000	   20.644531
    7.4821	 -0.029500	  0.041000	  1.030000	   -0.810000	   -0.280000	    0.190000	   20.648438
    7.4921	  0.012500	  0.046000	  1.029500	   -0.260000	    0.250000	    0.240000	   20.664063
    7.5021	  0.030000	  0.031000	  0.987000	   -0.400000	    0.050000	    0.050000	   20.667969
    7.5121	 -0.019000	  0.036000	  0.983500	   -0.420000	   -0.520000	    0.350000	   20.683594
    7.5221	 -0.023000	  0.041500	  1.034500	   -0.700000	   -0.110000	    0.160000	   20.675781
    7.5321	  0.029000	  0.035000	  1.010500	   -0.330000	    0.170000	    0.300000	   20.656250
    7.5421	  0.009000	  0.032500	  0.993000	   -0.450000	   -0.190000	    0.200000	   20.664063
    7.5521	 -0.022500	  0.027000	  0.988000	   -0.290000	   -0.300000	    0.290000	   20.660156
    7.5621	 -0.013500	  0.041500	  1.030000	   -0.660000	   -0.380000	    0.310000	   20.664063
    7.5721	  0.005000	  0.042500	  1.038500	   -0.240000	   -0.050000	    0.340000	   20.675781
    7.5821	  0.004000	  0.042000	  0.998500	   -0.420000	    0.300000	    0.170000	   20.656250
    7.5921	 -0.002000	  0.025500	  0.986500	   -0.350000	   -0.380000	    0.420000	   20.648438
    7.6021	 -0.015500	  0.046500	  1.033500	   -0.480000	   -0.180000	    0.230000	   20.656250
    7.6121	  0.001500	  0.039000	  1.013000	   -0.260000	    0.040000	    0.300000	   20.648438
    7.6221	  0.016000	  0.047500	  1.007500	   -0.430000	    0.210000	    0.160000	   20.640625
    7.6321	  0.002000	  0.025000	  0.983500	   -0.210000	   -0.340000	    0.340000	   20.664063
    7.6421	 -0.020000	  0.047500	  1.018500	   -0.630000	   -0.330000	    0.400000	   20.660156
    7.6521	  0.009500	  0.033000	  1.018500	   -0.340000	    0.040000	    0.230000	   20.656250
    7.6621	  0.028500	  0.049000	  1.011000	   -0.510000	    0.140000	    0.250000	   20.664063
    7.6721	 -0.006000	  0.026000	  0.986500	   -0.380000	   -0.510000	    0.360000	   20.656250
    7.6821	 -0.022000	  0.047500	  1.036000	   -0.730000	   -0.070000	    0.120000	   20.671875
    7.6921	  0.011500	  0.033000	  1.016500	   -0.290000	    0.180000	    0.170000	   20.675781
    7.7021	  0.012500	  0.052000	  1.010500	   -0.470000	    0.120000	    0.160000	   20.664063
    7.7121	 -0.010000	  0.022000	  0.987000	   -0.160000	   -0.200000	    0.260000	   20.687500
    7.7221	 -0.022500	  0.047000	  1.021000	   -0.690000	   -0.240000	    0.020000	   20.683594
    7.7321	 -0.014500	  0.033000	  1.016000	   -0.190000	    0.050000	    0.210000	   20.667969
    7.7421	  0.006500	  0.046500	  1.013500	   -0.590000	    0.330000	    0.120000	   20.660156
    7.7521	  0.000500	  0.020500	  0.981000	   -0.190000	   -0.350000	    0.290000	   20.660156
    7.7621	 -0.028000	  0.041000	  1.022000	   -0.600000	   -0.330000	    0.140000	   20.636719
    7.7721	 -0.006000	  0.027500	  1.019000	   -0.360000	    0.190000	    0.370000	   20.644531
    7.7821	  0.025000	  0.042500	  0.999500	   -0.530000	    0.140000	    0.330000	   20.648438
    7.7921	 -0.001500	  0.024000	  0.994000	   -0.200000	   -0.300000	    0.340000	   20.671875
    7.8021	 -0.027500	  0.049500	  1.019500	   -0.690000	   -0.150000	    0.250000	   20.648438
    7.8121	 -0.001000	  0.032500	  1.004500	   -0.380000	    0.000000	    0.300000	   20.660156
    7.8221	  0.014500	  0.053000	  1.018500	   -0.440000	    0.120000	    0.250000	   20.675781
    7.8321	 -0.008000	  0.028500	  0.982000	   -0.300000	   -0.260000	    0.340000	   20.664063
    7.8421	 -0.018000	  0.046000	  1.014000	   -0.650000	   -0.230000	    0.240000	   20.648438
    7.8521	 -0.003000	  0.025000	  1.022000	   -0.350000	    0.010000	    0.310000	   20.656250
    7.8621	 -0.001000	  0.054000	  1.006500	   -0.490000	    0.120000	    0.280000	   20.648438
    7.8721	 -0.005000	  0.023500	  0.987000	   -0.330000	   -0.370000	    0.360000	   20.648438
    7.8821	 -0.002500	  0.047500	  1.037500	   -0.690000	   -0.140000	    0.300000	   20.640625
    7.8921	 -0.001500	  0.032000	  0.991000	   -0.180000	    0.100000	    0.270000	   20.675781
    7.9021	  0.000500	  0.056500	  1.004000	   -0.520000	    0.010000	    0.100000	   20.710938
    7.9121	  0.009000	  0.024500	  0.999000	   -0.390000	   -0.500000	    0.250000	   20.664063
    7.9225	 -0.003500	  0.048000	  1.018000	   -0.780000	   -0.130000	    0.130000	   20.660156
    7.9321	 -0.016500	  0.026500	  1.002000	   -0.150000	   -0.110000	    0.230000	   20.664063
    7.9421	  0.006500	  0.052500	  1.019000	   -0.440000	    0.170000	    0.100000	   20.652344
    7.9521	  0.006000	  0.020500	  0.991000	   -0.320000	   -0.550000	    0.340000	   20.664063
    7.9621	 -0.026000	  0.048500	  1.039000	   -0.710000	   -0.330000	    0.230000	   20.679688
    7.9721	 -0.008000	  0.028000	  1.009000	   -0.280000	    0.120000	    0.300000	   20.675781
    7.9821	  0.010500	  0.051000	  0.999500	   -0.600000	    0.020000	    0.130000	   20.660156
    7.9921	 -0.011500	  0.027500	  0.996500	   -0.100000	   -0.490000	    0.310000	   20.660156
    8.0021	 -0.004500	  0.045500	  1.026500	   -0.800000	   -0.270000	    0.250000	   20.656250
    8.0121	  0.004500	  0.024500	  0.993000	   -0.130000	   -0.120000	    0.270000	   20.640625
    8.0221	 -0.008000	  0.046500	  1.003500	   -0.530000	   -0.150000	    0.110000	   20.636719
    8.0321	 -0.002000	  0.024000	  0.997500	   -0.290000	   -0.420000	    0.440000	   20.644531
    8.0421	 -0.005000	  0.044000	  1.036000	   -0.720000	   -0.460000	    0.230000	   20.671875
    8.0521	 -0.018500	  0.034000	  1.016000	   -0.240000	   -0.260000	    0.350000	   20.691406
    8.0621	  0.000000	  0.047000	  1.004500	   -0.600000	    0.150000	    0.150000	   20.660156
    8.0721	  0.007500	  0.028000	  0.990500	   -0.200000	   -0.460000	    0.400000	   20.644531
    8.0822	 -0.010000	  0.046000	  1.036000	   -0.700000	   -0.330000	    0.150000	   20.667969
    8.0921	 -0.002000	  0.032500	  0.996000	   -0.270000	    0.060000	    0.310000	   20.656250
    8.1021	  0.007000	  0.044000	  0.996000	   -0.570000	   -0.110000	    0.160000	   20.648438
    8.1121	 -0.006500	  0.033500	  1.001500	   -0.360000	   -0.460000	    0.380000	   20.667969
    8.1221	 -0.000500	  0.042500	  1.025500	   -0.740000	   -0.230000	    0.110000	   20.660156
    8.1321	  0.004500	  0.038000	  1.006500	   -0.060000	   -0.130000	    0.280000	   20.667969
    8.1421	 -0.007000	  0.045500	  1.011000	   -0.590000	    0.020000	    0.160000	   20.671875
    8.1521	 -0.004000	  0.032000	  0.993000	   -0.210000	   -0.220000	    0.400000	   20.656250
    8.1621	  0.002000	  0.037000	  1.037500	   -0.770000	   -0.310000	    0.150000	   20.656250
    8.1721	 -0.003000	  0.038000	  1.003500	   -0.140000	    0.030000	    0.330000	   20.656250
    8.1822	 -0.000500	  0.040500	  0.986000	   -0.650000	   -0.030000	    0.060000	   20.656250
    8.1921	  0.001000	  0.033500	  1.007500	   -0.350000	   -0.510000	    0.320000	   20.679688
    8.2021	 -0.003500	  0.040000	  1.030500	   -0.810000	   -0.190000	    0.220000	   20.664063
    8.2121	 -0.004000	  0.040500	  0.995500	   -0.070000	    0.040000	    0.290000	   20.671875
    8.2221	  0.003500	  0.035500	  1.007000	   -0.630000	   -0.240000	    0.260000	   20.667969
    8.2321	 -0.000500	  0.034500	  1.000000	   -0.230000	   -0.280000	    0.310000	   20.683594
    8.2421	 -0.010000	  0.032500	  1.025000	   -0.760000	   -0.340000	    0.160000	   20.707031
    8.2521	  0.004500	  0.037000	  1.021500	    0.000000	    0.130000	    0.360000	   20.703125
    8.2621	  0.010500	  0.034000	  0.984500	   -0.670000	   -0.030000	    0.140000	   20.687500
    8.2721	 -0.017000	  0.035500	  1.003000	   -0.310000	   -0.720000	    0.420000	   20.664063
    8.2822	 -0.012500	  0.038000	  1.042000	   -0.820000	   -0.140000	    0.160000	   20.656250
    8.2921	  0.007000	  0.042500	  0.997000	   -0.110000	    0.120000	    0.390000	   20.656250
    8.3021	 -0.007000	  0.034500	  0.999000	   -0.630000	   -0.220000	    0.240000	   20.656250
    8.3121	 -0.008500	  0.036500	  1.001500	   -0.350000	   -0.290000	    0.390000	   20.675781
    8.3221	  0.004000	  0.035000	  1.019500	   -0.900000	   -0.380000	    0.210000	   20.664063
    8.3321	 -0.004500	  0.043000	  1.025500	   -0.140000	   -0.120000	    0.370000	   20.671875
    8.3421	  0.002500	  0.036000	  0.998000	   -0.580000	    0.230000	    0.160000	   20.667969
    8.3521	  0.007500	  0.037000	  0.988500	   -0.270000	   -0.510000	    0.410000	   20.667969
    8.3621	 -0.004500	  0.037500	  1.041500	   -0.680000	   -0.200000	    0.090000	   20.671875
    8.3721	  0.007000	  0.048500	  0.992000	   -0.080000	    0.170000	    0.250000	   20.664063
    8.3822	  0.008000	  0.036000	  0.992500	   -0.550000	   -0.210000	    0.110000	   20.671875
    8.3921	 -0.012500	  0.042000	  1.014000	   -0.080000	   -0.350000	    0.410000	   20.679688
    8.4021	 -0.008500	  0.031500	  1.018000	   -0.760000	   -0.160000	    0.070000	   20.675781
    8.4121	  0.000500	  0.043500	  1.017500	   -0.110000	    0.080000	    0.330000	   20.656250
    8.4221	  0.002000	  0.030000	  1.007500	   -0.730000	    0.020000	    0.250000	   20.664063
    8.4322	 -0.008000	  0.041500	  1.000000	   -0.190000	   -0.400000	    0.380000	   20.671875
    8.4421	 -0.006500	  0.030500	  1.039000	   -0.680000	    0.000000	    0.120000	   20.679688
    8.4521	  0.008000	  0.050000	  1.009000	   -0.060000	    0.230000	    0.350000	   20.667969
    8.4621	  0.005500	  0.031000	  0.981500	   -0.640000	   -0.020000	    0.110000	   20.667969
    8.4721	 -0.006000	  0.041500	  1.011000	   -0.070000	   -0.330000	    0.330000	   20.652344
    8.4822	 -0.003000	  0.029000	  1.019000	   -0.720000	   -0.320000	    0.170000	   20.691406
    8.4921	 -0.004000	  0.042000	  1.004000	   -0.020000	    0.180000	    0.300000	   20.679688
    8.5021	  0.007000	  0.029500	  0.997000	   -0.520000	    0.100000	    0.160000	   20.679688
    8.5121	 -0.002500	  0.037000	  1.004500	   -0.320000	   -0.650000	    0.410000	   20.667969
    8.5221	 -0.026500	  0.036000	  1.041000	   -0.660000	   -0.230000	    0.220000	   20.660156
    8.5321	 -0.005500	  0.047500	  1.017000	   -0.160000	    0.180000	    0.390000	   20.660156
    8.5421	  0.016500	  0.032500	  0.988000	   -0.600000	    0.080000	    0.130000	   20.675781
    8.5521	 -0.008000	  0.039500	  0.999000	   -0.240000	   -0.380000	    0.400000	   20.687500
    8.5621	 -0.017000	  0.037000	  1.024000	   -0.710000	   -0.160000	    0.150000	   20.671875
    8.5721	  0.006500	  0.041500	  1.008000	   -0.200000	    0.120000	    0.250000	   20.671875
    8.5822	  0.011500	  0.032500	  0.992500	   -0.520000	   -0.050000	    0.190000	   20.695313
    8.5921	 -0.009500	  0.035500	  0.992000	   -0.280000	   -0.460000	    0.370000	   20.687500
    8.6021	 -0.010500	  0.038000	  1.031000	   -0.760000	   -0.420000	    0.170000	   20.675781
    8.6121	  0.004500	  0.048500	  1.019500	   -0.100000	    0.010000	    0.310000	   20.691406
    8.6221	  0.005000	  0.035000	  0.991500	   -0.630000	   -0.070000	    0.210000	   20.691406
    8.6322	 -0.009000	  0.034500	  0.995500	   -0.180000	   -0.390000	    0.330000	   20.691406
    8.6421	 -0.012500	  0.040000	  1.033500	   -0.720000	   -0.200000	    0.260000	   20.675781
    8.6521	  0.001500	  0.041000	  1.008000	   -0.210000	   -0.010000	    0.420000	   20.652344
    8.6621	  0.009000	  0.037500	  0.997000	   -0.440000	    0.100000	    0.120000	   20.648438
    8.6721	 -0.005000	  0.032000	  0.990000	   -0.300000	   -0.450000	    0.420000	   20.683594
    8.6822	 -0.019500	  0.042000	  1.026500	   -0.680000	   -0.340000	    0.050000	   20.675781
    8.6922	  0.003500	  0.040000	  1.017000	   -0.170000	    0.140000	    0.270000	   20.660156
    8.7022	  0.014500	  0.038500	  1.000000	   -0.670000	   -0.030000	    0.130000	   20.683594
    8.7122	 -0.013500	  0.031500	  0.988500	   -0.290000	   -0.440000	    0.370000	   20.679688
    8.7222	 -0.017000	  0.040500	  1.032500	   -0.700000	   -0.160000	    0.200000	   20.687500
    8.7322	  0.014500	  0.034000	  1.019000	   -0.190000	    0.210000	    0.180000	   20.679688
    8.7422	  0.010000	  0.039500	  0.989500	   -0.640000	    0.030000	    0.220000	   20.667969
    8.7522	 -0.014500	  0.027500	  0.986500	   -0.240000	   -0.470000	    0.220000	   20.675781
    8.7622	 -0.020000	  0.046500	  1.035000	   -0.760000	   -0.420000	    0.140000	   20.683594
    8.7722	 -0.004500	  0.036000	  1.018000	   -0.210000	    0.030000	    0.360000	   20.679688
    8.7822	  0.008500	  0.043000	  1.003500	   -0.520000	    0.120000	    0.090000	   20.667969
    8.7922	 -0.000500	  0.025500	  0.984000	   -0.280000	   -0.370000	    0.240000	   20.683594
    8.8022	 -0.018500	  0.048000	  1.023500	   -0.680000	   -0.370000	    0.300000	   20.683594
    8.8122	 -0.002500	  0.031500	  1.032500	   -0.310000	   -0.140000	    0.260000	   20.671875
    8.8222	  0.019500	  0.045000	  1.006000	   -0.510000	    0.250000	    0.150000	   20.679688
    8.8322	 -0.003000	  0.024000	  0.975000	   -0.340000	   -0.490000	    0.340000	   20.710938
    8.8422	 -0.021000	  0.050500	  1.036500	   -0.760000	   -0.370000	    0.310000	   20.687500
    8.8522	  0.012000	  0.032500	  1.002500	   -0.310000	   -0.010000	    0.260000	   20.675781
    8.8622	  0.014000	  0.051000	  1.008000	   -0.470000	   -0.250000	    0.230000	   20.667969
    8.8722	 -0.016000	  0.024500	  0.988500	   -0.190000	   -0.350000	    0.450000	   20.675781
    8.8822	 -0.011500	  0.044500	  1.015000	   -0.570000	   -0.240000	    0.150000	   20.664063
    8.8922	  0.000500	  0.027000	  1.028500	   -0.310000	   -0.290000	    0.220000	   20.648438
    8.9022	 -0.000500	  0.052000	  1.016000	   -0.600000	    0.260000	    0.110000	   20.664063
    8.9122	  0.000500	  0.022500	  0.979500	   -0.240000	   -0.330000	    0.220000	   20.667969
    8.9222	 -0.011000	  0.046500	  1.041500	   -0.740000	   -0.240000	    0.260000	   20.656250
    8.9326	 -0.007000	  0.033000	  1.002000	   -0.130000	    0.060000	    0.280000	   20.671875
    8.9422	  0.011500	  0.050500	  0.999000	   -0.500000	   -0.070000	    0.100000	   20.691406
    8.9522	  0.002500	  0.024000	  0.995000	   -0.240000	   -0.420000	    0.280000	   20.667969
    8.9622	 -0.015000	  0.047000	  1.016000	   -0.730000	   -0.260000	    0.180000	   20.656250
    8.9722	 -0.004500	  0.022500	  1.006000	   -0.360000	    0.010000	    0.210000	   20.648438
    8.9822	  0.016000	  0.046500	  1.013000	   -0.580000	    0.020000	    0.220000	   20.671875
    8.9922	 -0.002000	  0.023000	  0.988000	   -0.280000	   -0.580000	    0.440000	   20.683594
    9.0022	 -0.029000	  0.046000	  1.038500	   -0.750000	   -0.320000	    0.140000	   20.675781
    9.0122	 -0.004000	  0.030500	  1.015500	   -0.320000	    0.090000	    0.320000	   20.664063
    9.0222	  0.014500	  0.052500	  1.002000	   -0.500000	    0.170000	    0.160000	   20.679688
    9.0322	 -0.009500	  0.028000	  0.994000	   -0.200000	   -0.310000	    0.410000	   20.687500
    9.0422	 -0.008500	  0.047500	  1.019500	   -0.660000	   -0.200000	    0.180000	   20.695313
    9.0522	  0.004000	  0.027500	  1.005000	   -0.150000	   -0.150000	    0.370000	   20.707031
    9.0622	  0.000000	  0.045500	  1.008000	   -0.640000	    0.030000	    0.180000	   20.675781
    9.0722	 -0.001000	  0.026500	  0.985500	   -0.290000	   -0.420000	    0.370000	   20.683594
    9.0822	 -0.002500	  0.042500	  1.034500	   -0.700000	   -0.340000	    0.190000	   20.695313
    9.0922	 -0.005500	  0.033500	  1.017500	   -0.140000	   -0.070000	    0.220000	   20.671875
    9.1022	  0.002000	  0.052000	  1.004000	   -0.510000	    0.080000	    0.200000	   20.656250
    9.1122	  0.004000	  0.026000	  0.997000	   -0.160000	   -0.390000	    0.340000	   20.691406
    9.1222	 -0.005000	  0.046500	  1.034000	   -0.770000	   -0.180000	    0.210000	   20.703125
    9.1322	 -0.006500	  0.030000	  0.989000	   -0.090000	    0.150000	    0.380000	   20.687500
    9.1422	  0.002500	  0.047000	  1.008000	   -0.510000	   -0.070000	    0.070000	   20.683594
    9.1522	 -0.003000	  0.026000	  0.999500	   -0.420000	   -0.350000	    0.370000	   20.687500
    9.1622	 -0.005500	  0.041500	  1.026000	   -0.770000	   -0.140000	    0.220000	   20.675781
    9.1722	 -0.004500	  0.034500	  1.004500	   -0.160000	    0.010000	    0.330000	   20.683594
    9.1822	 -0.004500	  0.046000	  1.013000	   -0.580000	    0.020000	    0.080000	   20.707031
    9.1922	  0.000500	  0.031500	  0.998000	   -0.250000	   -0.360000	    0.350000	   20.699219
    9.2022	  0.005500	  0.034000	  1.032000	   -0.770000	   -0.150000	    0.090000	   20.679688
    9.2122	  0.000000	  0.035500	  0.996000	    0.010000	    0.120000	    0.400000	   20.687500
    9.2222	  0.000000	  0.040500	  0.985500	   -0.680000	   -0.100000	    0.100000	   20.687500
    9.2322	 -0.003000	  0.034000	  1.017500	   -0.320000	   -0.470000	    0.320000	   20.660156
    9.2422	 -0.006500	  0.036000	  1.031500	   -0.770000	   -0.100000	    0.220000	   20.679688
    9.2522	 -0.014000	  0.042000	  0.991500	    0.020000	    0.010000	    0.270000	   20.687500
    9.2622	 -0.001500	  0.033500	  1.013000	   -0.670000	   -0.120000	    0.170000	   20.699219
    9.2722	  0.001500	  0.041500	  1.011000	   -0.200000	   -0.270000	    0.490000	   20.683594
    9.2822	 -0.009000	  0.030000	  1.019500	   -0.840000	   -0.350000	    0.180000	   20.667969
    9.2922	 -0.001000	  0.042000	  1.017000	   -0.040000	    0.070000	    0.440000	   20.683594
    9.3022	  0.010000	  0.029500	  0.981500	   -0.540000	    0.020000	    0.120000	   20.691406
    9.3122	 -0.008000	  0.046000	  1.011000	   -0.310000	   -0.480000	    0.420000	   20.699219
    9.3222	  0.001500	  0.031500	  1.026000	   -0.790000	   -0.040000	    0.190000	   20.679688
    9.3322	  0.011500	  0.049000	  0.990000	   -0.110000	   -0.060000	    0.320000	   20.664063
    9.3422	 -0.012500	  0.028000	  0.995000	   -0.620000	   -0.320000	    0.060000	   20.699219
    9.3522	 -0.010500	  0.048500	  1.015500	   -0.280000	   -0.150000	    0.330000	   20.710938
    9.3622	  0.006500	  0.024000	  1.024000	   -0.840000	   -0.270000	    0.100000	   20.695313
    9.3722	 -0.010000	  0.049500	  1.015000	   -0.050000	   -0.050000	    0.360000	   20.675781
    9.3822	 -0.007500	  0.023500	  0.990500	   -0.640000	   -0.060000	    0.060000	   20.691406
    9.3922	  0.002500	  0.050500	  1.021500	   -0.310000	   -0.290000	    0.470000	   20.671875
    9.4022	  0.000500	  0.026500	  1.023500	   -0.700000	   -0.060000	    0.100000	   20.660156
    9.4122	  0.001000	  0.058000	  1.000500	   -0.210000	    0.050000	    0.390000	   20.664063
    9.4222	  0.001500	  0.020000	  0.984000	   -0.660000	   -0.340000	    0.150000	   20.675781
    9.4322	 -0.005500	  0.054000	  1.021000	   -0.310000	   -0.200000	    0.370000	   20.683594
    9.4422	  0.002000	  0.016000	  1.011500	   -0.660000	   -0.280000	    0.110000	   20.687500
    9.4522	  0.003000	  0.055500	  1.014500	   -0.200000	    0.100000	    0.350000	   20.695313
    9.4622	 -0.008000	  0.016000	  0.989000	   -0.610000	   -0.300000	    0.170000	   20.683594
    9.4722	 -0.016500	  0.057000	  1.032000	   -0.420000	   -0.350000	    0.370000	   20.695313
    9.4822	 -0.001000	  0.018000	  1.025000	   -0.640000	   -0.070000	    0.170000	   20.660156
    9.4922	  0.003000	  0.060500	  1.005000	   -0.080000	    0.230000	    0.240000	   20.656250
    9.5022	 -0.009500	  0.018000	  0.979000	   -0.540000	   -0.240000	    0.230000	   20.699219
    9.5122	 -0.004000	  0.058500	  1.023000	   -0.430000	   -0.270000	    0.450000	   20.683594
    9.5222	  0.001000	  0.017000	  1.013500	   -0.630000	   -0.230000	    0.220000	   20.671875
    9.5322	 -0.005000	  0.055000	  1.007500	   -0.200000	    0.160000	    0.220000	   20.679688
    9.5422	  0.001500	  0.017000	  0.983000	   -0.420000	   -0.150000	    0.250000	   20.707031
    9.5522	 -0.004500	  0.054500	  1.030000	   -0.600000	   -0.460000	    0.280000	   20.679688
    9.5622	 -0.005000	  0.022500	  1.021500	   -0.550000	   -0.060000	    0.240000	   20.683594
    9.5722	  0.012000	  0.062000	  1.008000	   -0.170000	    0.220000	    0.170000	   20.707031
    9.5822	 -0.001000	  0.015000	  0.985000	   -0.440000	   -0.320000	    0.190000	   20.710938
    9.5922	 -0.014000	  0.061500	  1.019000	   -0.360000	   -0.340000	    0.360000	   20.679688
    9.6022	  0.001500	  0.014000	  1.014500	   -0.590000	   -0.130000	    0.150000	   20.707031
    9.6122	  0.002500	  0.060000	  1.012000	   -0.260000	    0.020000	    0.340000	   20.714844
    9.6222	 -0.011000	  0.013500	  0.972500	   -0.470000	   -0.310000	    0.210000	   20.695313
    9.6322	 -0.004500	  0.057500	  1.036000	   -0.420000	   -0.270000	    0.280000	   20.675781
    9.6422	 -0.001500	  0.016500	  1.017500	   -0.620000	   -0.190000	    0.110000	   20.687500
    9.6522	 -0.006000	  0.070000	  1.013000	   -0.290000	    0.140000	    0.210000	   20.695313
    9.6622	  0.001500	  0.011500	  0.987500	   -0.260000	   -0.160000	    0.240000	   20.679688
    9.6722	  0.002500	  0.058000	  1.028000	   -0.530000	   -0.330000	    0.350000	   20.691406
    9.6822	 -0.004500	  0.012000	  0.999500	   -0.510000	   -0.090000	    0.300000	   20.691406
    9.6922	  0.006000	  0.062000	  1.008000	   -0.290000	    0.180000	    0.220000	   20.691406
    9.7022	  0.003000	  0.011000	  0.977500	   -0.540000	   -0.480000	    0.310000	   20.683594
    9.7122	 -0.015000	  0.058500	  1.036500	   -0.570000	   -0.480000	    0.310000	   20.675781
    9.7222	 -0.011500	  0.017000	  1.012500	   -0.480000	    0.020000	    0.200000	   20.699219
    9.7322	  0.005500	  0.063500	  1.013500	   -0.370000	    0.130000	    0.160000	   20.714844
    9.7422	 -0.001500	  0.013500	  0.985000	   -0.350000	   -0.410000	    0.170000	   20.699219
    9.7522	 -0.011500	  0.059500	  1.032000	   -0.440000	   -0.180000	    0.350000	   20.691406
    9.7622	 -0.005000	  0.014500	  1.009500	   -0.450000	   -0.040000	    0.290000	   20.695313
    9.7722	  0.007500	  0.061000	  1.008000	   -0.390000	    0.230000	    0.200000	   20.683594
    9.7823	 -0.002500	  0.016000	  0.979000	   -0.330000	   -0.420000	    0.280000	   20.695313
    9.7922	 -0.005500	  0.058500	  1.036500	   -0.630000	   -0.400000	    0.260000	   20.699219
    9.8022	  0.003000	  0.021000	  1.001000	   -0.300000	   -0.010000	    0.220000	   20.718750
    9.8122	  0.005000	  0.061500	  1.004000	   -0.510000	   -0.150000	    0.230000	   20.699219
    9.8222	 -0.004000	  0.015000	  0.993000	   -0.390000	   -0.400000	    0.250000	   20.703125
    9.8322	 -0.006000	  0.056500	  1.029500	   -0.500000	   -0.300000	    0.140000	   20.699219
    9.8422	 -0.012500	  0.019500	  1.018500	   -0.400000	   -0.290000	    0.190000	   20.710938
    9.8522	  0.001500	  0.056500	  1.016000	   -0.340000	    0.290000	    0.280000	   20.714844
    9.8622	  0.006500	  0.014000	  0.979500	   -0.400000	   -0.310000	    0.240000	   20.695313
    9.8722	 -0.014500	  0.060000	  1.035000	   -0.680000	   -0.270000	    0.390000	   20.707031
    9.8822	 -0.006500	  0.022000	  1.004500	   -0.410000	   -0.030000	    0.110000	   20.683594
    9.8922	  0.012000	  0.061500	  1.009500	   -0.380000	    0.150000	    0.160000	   20.683594
    9.9022	 -0.006000	  0.018500	  0.981500	   -0.350000	   -0.400000	    0.290000	   20.699219
    9.9122	 -0.008000	  0.055000	  1.027500	   -0.550000	   -0.280000	    0.280000	   20.703125
    9.9222	  0.005500	  0.015500	  1.015000	   -0.350000	   -0.240000	    0.300000	   20.691406
    9.9326	  0.004000	  0.056500	  1.012500	   -0.350000	    0.160000	    0.240000	   20.687500
    9.9422	 -0.004000	  0.014500	  0.982500	   -0.260000	   -0.210000	    0.240000	   20.671875
    9.9522	 -0.011000	  0.054000	  1.044000	   -0.590000	   -0.340000	    0.130000	   20.695313
    9.9622	 -0.006500	  0.023500	  1.007500	   -0.280000	    0.090000	    0.240000	   20.683594
    9.9722	  0.005000	  0.060000	  1.006000	   -0.410000	    0.100000	    0.140000	   20.683594
    9.9823	  0.000000	  0.020500	  0.985000	   -0.390000	   -0.290000	    0.200000	   20.675781
    9.9922	 -0.009000	  0.054500	  1.019500	   -0.510000	   -0.210000	    0.110000	   20.683594
   10.0022	 -0.009000	  0.018000	  1.014500	   -0.440000	   -0.300000	    0.240000	   20.687500
   10.0122	  0.004500	  0.050000	  1.009500	   -0.570000	    0.170000	    0.110000	   20.691406
   10.0222	  0.002000	  0.020500	  0.979500	   -0.360000	   -0.280000	    0.330000	   20.699219
   10.0322	 -0.017500	  0.052000	  1.040500	   -0.770000	   -0.400000	    0.230000	   20.683594
   10.0422	  0.000500	  0.025000	  1.016500	   -0.280000	    0.010000	    0.340000	   20.683594
   10.0522	  0.017000	  0.057000	  0.997500	   -0.430000	    0.180000	    0.280000	   20.707031
   10.0622	 -0.007500	  0.020500	  0.990000	   -0.250000	   -0.460000	    0.330000	   20.699219
   10.0722	 -0.009000	  0.055000	  1.025500	   -0.610000	   -0.130000	    0.300000	   20.695313
   10.0823	  0.005000	  0.019500	  1.005500	   -0.550000	   -0.170000	    0.300000	   20.695313
   10.0922	  0.000500	  0.055500	  1.014000	   -0.450000	    0.020000	    0.270000	   20.667969
   10.1022	 -0.002000	  0.018000	  0.977500	   -0.340000	   -0.270000	    0.330000	   20.703125
   10.1122	 -0.005000	  0.053000	  1.033500	   -0.660000	   -0.410000	    0.260000	   20.703125
   10.1222	 -0.013500	  0.025000	  1.027500	   -0.420000	   -0.180000	    0.310000	   20.683594
   10.1322	  0.005000	  0.061500	  1.009500	   -0.370000	    0.300000	    0.310000	   20.699219
   10.1422	  0.007000	  0.016500	  0.978000	   -0.280000	   -0.240000	    0.190000	   20.707031
   10.1522	 -0.013000	  0.055000	  1.034000	   -0.530000	   -0.260000	    0.250000	   20.691406
   10.1622	 -0.004500	  0.019000	  0.999000	   -0.430000	    0.040000	    0.230000	   20.695313
   10.1722	  0.012000	  0.057000	  1.007000	   -0.400000	    0.120000	    0.250000	   20.679688
   10.1823	 -0.008000	  0.016000	  0.987500	   -0.350000	   -0.230000	    0.370000	   20.691406
   10.1922	 -0.020000	  0.050000	  1.025500	   -0.570000	   -0.370000	    0.290000	   20.695313
   10.2022	 -0.005500	  0.022500	  1.019500	   -0.360000	   -0.090000	    0.300000	   20.707031
   10.2122	  0.003500	  0.059500	  1.016500	   -0.400000	    0.200000	    0.250000	   20.695313
   10.2222	 -0.005000	  0.020500	  0.980500	   -0.240000	   -0.380000	    0.340000	   20.707031
   10.2323	 -0.008500	  0.051500	  1.035500	   -0.740000	   -0.370000	    0.300000	   20.718750
   10.2422	  0.000000	  0.020500	  1.012500	   -0.300000	   -0.110000	    0.180000	   20.691406
   10.2522	  0.005500	  0.057000	  1.000500	   -0.450000	   -0.080000	    0.140000	   20.710938
   10.2622	  0.001500	  0.021000	  0.983000	   -0.400000	   -0.330000	    0.280000	   20.699219
   10.2722	 -0.005000	  0.053000	  1.028500	   -0.650000	   -0.260000	    0.160000	   20.683594
   10.2823	 -0.009500	  0.025500	  1.006500	   -0.340000	   -0.130000	    0.230000	   20.695313
   10.2922	  0.005500	  0.056000	  1.006000	   -0.470000	    0.110000	    0.120000	   20.679688
   10.3022	  0.002000	  0.019500	  0.990500	   -0.190000	   -0.340000	    0.230000	   20.699219
   10.3122	 -0.019500	  0.052000	  1.031500	   -0.610000	   -0.490000	    0.310000	   20.695313
   10.3223	 -0.011000	  0.021500	  1.015000	   -0.420000	    0.030000	    0.320000	   20.679688
   10.3323	  0.014000	  0.055000	  1.007500	   -0.450000	    0.140000	    0.330000	   20.695313
   10.3422	 -0.002000	  0.017500	  0.986000	   -0.350000	   -0.480000	    0.300000	   20.679688
   10.3523	 -0.017000	  0.055500	  1.029000	   -0.730000	   -0.190000	    0.230000	   20.699219
   10.3623	  0.001500	  0.024500	  1.005000	   -0.390000	   -0.130000	    0.140000	   20.710938
   10.3723	  0.008000	  0.057000	  1.012000	   -0.450000	   -0.020000	    0.130000	   20.710938
   10.3823	 -0.004500	  0.020000	  0.979000	   -0.350000	   -0.330000	    0.280000	   20.695313
   10.3923	 -0.006500	  0.051000	  1.025000	   -0.550000	   -0.270000	    0.220000	   20.703125
   10.4023	 -0.004000	  0.018500	  1.024500	   -0.330000	   -0.100000	    0.150000	   20.710938
   10.4123	  0.004000	  0.055500	  1.004500	   -0.350000	    0.310000	    0.220000	   20.687500
   10.4223	  0.001000	  0.015000	  0.985000	   -0.360000	   -0.400000	    0.410000	   20.679688
   10.4323	 -0.013500	  0.054500	  1.046000	   -0.520000	   -0.250000	    0.270000	   20.675781
   10.4423	 -0.005000	  0.025500	  0.998500	   -0.280000	    0.020000	    0.100000	   20.671875
   10.4523	  0.011500	  0.057500	  1.013000	   -0.540000	   -0.090000	    0.210000	   20.675781
   10.4623	 -0.002500	  0.020500	  0.987000	   -0.330000	   -0.380000	    0.220000	   20.695313
   10.4723	 -0.010500	  0.053500	  1.017000	   -0.600000	   -0.250000	    0.250000	   20.707031
   10.4823	 -0.004500	  0.018000	  1.021000	   -0.390000	   -0.260000	    0.300000	   20.695313
   10.4923	  0.005000	  0.053000	  1.011000	   -0.430000	    0.170000	    0.010000	   20.703125
   10.5023	 -0.005500	  0.018500	  0.981000	   -0.370000	   -0.460000	    0.340000	   20.707031
   10.5123	 -0.011500	  0.051000	  1.046500	   -0.770000	   -0.340000	    0.200000	   20.695313
   10.5223	  0.002500	  0.026500	  1.002500	   -0.310000	    0.060000	    0.280000	   20.683594
   10.5323	  0.003500	  0.057000	  0.997000	   -0.320000	    0.000000	    0.260000	   20.679688
   10.5423	 -0.007500	  0.022000	  0.998500	   -0.330000	   -0.410000	    0.310000	   20.687500
   10.5523	 -0.004000	  0.054000	  1.023000	   -0.570000	   -0.190000	    0.280000	   20.714844
   10.5623	 -0.010000	  0.021500	  1.006500	   -0.280000	   -0.120000	    0.200000	   20.722656
   10.5723	  0.001500	  0.051000	  1.014000	   -0.430000	    0.280000	    0.060000	   20.714844
   10.5823	  0.012000	  0.019000	  0.981500	   -0.200000	   -0.350000	    0.290000	   20.699219
   10.5923	 -0.014000	  0.054000	  1.037000	   -0.540000	   -0.530000	    0.320000	   20.667969
   10.6023	 -0.009500	  0.028000	  1.017500	   -0.310000	    0.020000	    0.290000	   20.683594
   10.6123	  0.024500	  0.054500	  1.006000	   -0.370000	    0.220000	    0.080000	   20.683594
   10.6223	  0.005500	  0.023000	  0.987000	   -0.270000	   -0.470000	    0.260000	   20.679688
   10.6323	 -0.018000	  0.056500	  1.027500	   -0.700000	   -0.280000	    0.160000	   20.679688
   10.6423	  0.003500	  0.022000	  1.005000	   -0.250000	   -0.010000	    0.240000	   20.699219
   10.6523	  0.007500	  0.050500	  1.008500	   -0.280000	    0.030000	    0.220000	   20.695313
   10.6623	 -0.016500	  0.018000	  0.981500	   -0.380000	   -0.400000	    0.320000	   20.683594
   10.6723	 -0.017000	  0.050000	  1.032000	   -0.550000	   -0.350000	    0.310000	   20.683594
   10.6823	 -0.004500	  0.023000	  1.025000	   -0.490000	    0.030000	    0.280000	   20.710938
   10.6923	 -0.003000	  0.055500	  1.008500	   -0.490000	    0.290000	    0.290000	   20.695313
   10.7023	  0.000500	  0.019500	  0.982000	   -0.180000	   -0.130000	    0.290000	   20.679688
   10.7123	  0.000500	  0.050500	  1.031500	   -0.710000	   -0.270000	    0.360000	   20.683594
   10.7223	 -0.003500	  0.023500	  1.005500	   -0.400000	   -0.090000	    0.220000	   20.691406
   10.7323	  0.007500	  0.054000	  1.001500	   -0.400000	    0.200000	    0.260000	   20.710938
   10.7423	  0.008500	  0.020000	  0.983000	   -0.330000	   -0.380000	    0.210000	   20.710938
   10.7523	 -0.008500	  0.053000	  1.028000	   -0.520000	   -0.260000	    0.250000	   20.710938
   10.7623	 -0.005500	  0.026500	  1.011000	   -0.390000	    0.070000	    0.110000	   20.730469
   10.7723	  0.009500	  0.055000	  1.012000	   -0.470000	    0.150000	    0.260000	   20.738281
   10.7823	 -0.003000	  0.020000	  0.989000	   -0.210000	   -0.290000	    0.280000	   20.714844
   10.7923	 -0.018000	  0.055500	  1.038000	   -0.660000	   -0.320000	    0.210000	   20.707031
   10.8023	 -0.002000	  0.021500	  1.016500	   -0.210000	    0.110000	    0.280000	   20.687500
   10.8123	  0.012000	  0.056000	  1.005500	   -0.440000	    0.170000	    0.240000	   20.667969
   10.8223	 -0.003000	  0.017500	  0.984500	   -0.300000	   -0.290000	    0.270000	   20.679688
   10.8323	 -0.011500	  0.056000	  1.030000	   -0.630000	   -0.420000	    0.250000	   20.726563
   10.8423	 -0.005000	  0.025000	  1.007500	   -0.380000	   -0.120000	    0.240000	   20.714844
   10.8523	  0.006000	  0.054000	  1.012000	   -0.550000	    0.100000	    0.180000	   20.695313
   10.8623	  0.004000	  0.017000	  0.983000	   -0.290000	   -0.310000	    0.240000	   20.718750
   10.8723	 -0.015000	  0.050000	  1.027500	   -0.590000	   -0.190000	    0.280000	   20.718750
   10.8823	 -0.012000	  0.021000	  1.022500	   -0.400000	   -0.020000	    0.290000	   20.710938
   10.8923	  0.015000	  0.049500	  1.003000	   -0.410000	    0.200000	    0.210000	   20.691406
   10.9023	 -0.001500	  0.019000	  0.985500	   -0.260000	   -0.400000	    0.180000	   20.679688
   10.9123	 -0.028500	  0.054500	  1.033000	   -0.620000	   -0.260000	    0.200000	   20.691406
   10.9223	 -0.004000	  0.027000	  1.007500	   -0.390000	    0.020000	    0.360000	   20.707031
   10.9327	  0.014000	  0.054500	  1.016000	   -0.460000	    0.010000	    0.200000	   20.699219
   10.9423	 -0.010500	  0.023500	  0.981500	   -0.270000	   -0.330000	    0.340000	   20.691406
   10.9523	 -0.012500	  0.051000	  1.016500	   -0.510000	   -0.090000	    0.220000	   20.699219
   10.9623	  0.003000	  0.021000	  1.026000	   -0.310000	   -0.160000	    0.330000	   20.691406
   10.9723	  0.004000	  0.052000	  1.006500	   -0.460000	    0.340000	    0.350000	   20.707031
   10.9823	 -0.005000	  0.022000	  0.982000	   -0.410000	   -0.400000	    0.360000	   20.722656
   10.9923	 -0.006000	  0.051000	  1.040000	   -0.690000	   -0.230000	    0.240000	   20.738281
   11.0023	  0.000500	  0.028500	  0.999500	   -0.400000	    0.070000	    0.140000	   20.734375
   11.0123	  0.002500	  0.056500	  1.002000	   -0.500000	   -0.110000	    0.260000	   20.714844
   11.0223	 -0.005500	  0.022000	  0.994500	   -0.240000	   -0.360000	    0.290000	   20.710938
   11.0323	 -0.010500	  0.053500	  1.020000	   -0.540000	   -0.290000	    0.200000	   20.695313
   11.0423	 -0.016000	  0.019500	  1.008500	   -0.370000	   -0.220000	    0.310000	   20.722656
   11.0523	  0.002500	  0.050500	  1.015500	   -0.470000	    0.260000	    0.250000	   20.726563
   11.0623	  0.002000	  0.019000	  0.979500	   -0.290000	   -0.440000	    0.340000	   20.714844
   11.0723	 -0.023000	  0.055000	  1.041000	   -0.670000	   -0.350000	    0.250000	   20.714844
   11.0823	 -0.008000	  0.027500	  1.011000	   -0.390000	    0.040000	    0.270000	   20.710938
   11.0923	  0.015500	  0.055500	  1.000500	   -0.430000	    0.120000	    0.140000	   20.703125
   11.1023	 -0.004500	  0.023500	  0.986000	   -0.200000	   -0.510000	    0.400000	   20.695313
   11.1123	 -0.012000	  0.054500	  1.023000	   -0.750000	   -0.410000	    0.260000	   20.718750
   11.1223	  0.003000	  0.021000	  1.003500	   -0.270000	   -0.200000	    0.220000	   20.722656
   11.1323	  0.005000	  0.050500	  1.004500	   -0.340000	    0.040000	    0.150000	   20.742188
   11.1423	 -0.005000	  0.019500	  0.982500	   -0.330000	   -0.500000	    0.450000	   20.722656
   11.1523	 -0.015500	  0.052000	  1.037500	   -0.590000	   -0.450000	    0.210000	   20.710938
   11.1623	 -0.013500	  0.028000	  1.023000	   -0.270000	   -0.120000	    0.270000	   20.718750
   11.1723	  0.004000	  0.056500	  1.008500	   -0.550000	    0.170000	    0.170000	   20.710938
   11.1823	  0.003000	  0.018500	  0.984500	   -0.150000	   -0.480000	    0.250000	   20.722656
   11.1923	 -0.013500	  0.054500	  1.031500	   -0.690000	   -0.440000	    0.150000	   20.703125
   11.2023	 -0.005500	  0.022500	  1.001500	   -0.270000	   -0.150000	    0.260000	   20.730469
   11.2123	  0.007000	  0.052500	  1.009000	   -0.550000	   -0.040000	    0.280000	   20.734375
   11.2223	 -0.003500	  0.020000	  0.980000	   -0.200000	   -0.540000	    0.280000	   20.714844
   11.2323	 -0.012000	  0.051500	  1.033500	   -0.750000	   -0.510000	    0.170000	   20.691406
   11.2423	  0.002500	  0.027500	  1.012000	   -0.120000	   -0.160000	    0.290000	   20.675781
   11.2523	  0.003000	  0.055000	  1.010500	   -0.580000	   -0.320000	    0.210000	   20.703125
   11.2623	 -0.006000	  0.022500	  0.991000	   -0.120000	   -0.470000	    0.270000	   20.730469
   11.2723	 -0.005000	  0.047000	  1.031500	   -0.670000	   -0.290000	    0.190000	   20.703125
   11.2823	 -0.005500	  0.026500	  1.012000	   -0.350000	   -0.150000	    0.390000	   20.699219
   11.2923	  0.002500	  0.053000	  0.998000	   -0.510000	    0.030000	    0.190000	   20.710938
   11.3023	  0.003000	  0.024000	  0.988500	   -0.250000	   -0.480000	    0.420000	   20.707031
   11.3123	 -0.011000	  0.052500	  1.035500	   -0.750000	   -0.420000	    0.180000	   20.695313
   11.3223	 -0.009500	  0.028500	  1.003500	   -0.280000	   -0.050000	    0.220000	   20.699219
   11.3323	  0.009500	  0.052000	  1.010500	   -0.560000	    0.090000	    0.160000	   20.707031
   11.3423	  0.005000	  0.020000	  0.988000	   -0.280000	   -0.380000	    0.330000	   20.714844
   11.3523	 -0.016000	  0.049500	  1.029500	   -0.580000	   -0.420000	    0.110000	   20.710938
   11.3623	 -0.003000	  0.023000	  1.017000	   -0.110000	   -0.150000	    0.240000	   20.722656
   11.3723	  0.019500	  0.051500	  0.998500	   -0.510000	    0.080000	    0.100000	   20.730469
   11.3824	 -0.006000	  0.018000	  0.983000	   -0.330000	   -0.570000	    0.250000	   20.703125
   11.3923	 -0.022500	  0.054500	  1.041000	   -0.630000	   -0.430000	    0.180000	   20.699219
   11.4023	  0.002500	  0.027000	  1.002500	   -0.350000	   -0.150000	    0.250000	   20.699219
   11.4123	  0.002000	  0.052500	  1.009500	   -0.640000	   -0.210000	    0.190000	   20.710938
   11.4223	 -0.006000	  0.020500	  0.984500	   -0.220000	   -0.320000	    0.460000	   20.703125
   11.4323	 -0.004500	  0.050000	  1.024000	   -0.680000	   -0.400000	    0.180000	   20.722656
   11.4423	 -0.007500	  0.024500	  1.028500	   -0.250000	   -0.360000	    0.290000	   20.726563
   11.4523	  0.003500	  0.049500	  1.007500	   -0.520000	    0.270000	    0.120000	   20.734375
   11.4623	  0.008500	  0.019000	  0.980500	   -0.270000	   -0.430000	    0.370000	   20.730469
   11.4723	 -0.008500	  0.049500	  1.042000	   -0.670000	   -0.380000	    0.220000	   20.718750
   11.4824	 -0.000500	  0.030000	  0.997500	   -0.230000	   -0.070000	    0.290000	   20.710938
   11.4923	  0.013000	  0.053000	  1.003000	   -0.610000	   -0.070000	    0.170000	   20.718750
   11.5023	 -0.004000	  0.023000	  0.997000	   -0.240000	   -0.490000	    0.380000	   20.730469
   11.5123	 -0.011000	  0.051000	  1.025000	   -0.630000	   -0.270000	    0.110000	   20.722656
   11.5223	 -0.001000	  0.024500	  1.012000	   -0.130000	   -0.150000	    0.370000	   20.722656
   11.5323	  0.004500	  0.049000	  1.017000	   -0.490000	    0.120000	    0.110000	   20.714844
   11.5423	 -0.003000	  0.024000	  0.986500	   -0.220000	   -0.370000	    0.340000	   20.726563
   11.5523	 -0.010500	  0.049500	  1.038500	   -0.730000	   -0.430000	    0.260000	   20.722656
   11.5623	  0.001500	  0.033000	  1.012000	   -0.290000	    0.110000	    0.250000	   20.726563
   11.5723	  0.012000	  0.051500	  0.998000	   -0.520000	    0.100000	    0.130000	   20.734375
   11.5824	 -0.001500	  0.027000	  0.991500	   -0.240000	   -0.450000	    0.310000	   20.730469
   11.5923	 -0.006500	  0.047000	  1.027000	   -0.710000	   -0.160000	    0.190000	   20.710938
   11.6023	  0.004000	  0.024500	  1.003500	   -0.220000	    0.020000	    0.240000	   20.714844
   11.6123	  0.008500	  0.044000	  1.006500	   -0.640000	    0.070000	    0.150000	   20.722656
   11.6223	 -0.002000	  0.022500	  0.990500	   -0.370000	   -0.390000	    0.270000	   20.722656
   11.6323	 -0.015500	  0.047500	  1.037000	   -0.690000	   -0.320000	    0.250000	   20.699219
   11.6423	 -0.006500	  0.033000	  1.025500	   -0.220000	   -0.030000	    0.270000	   20.714844
   11.6523	  0.013500	  0.050000	  1.004500	   -0.600000	    0.200000	    0.270000	   20.714844
   11.6623	 -0.000500	  0.025500	  0.985000	   -0.290000	   -0.360000	    0.420000	   20.718750
   11.6723	 -0.011000	  0.050500	  1.032500	   -0.730000	   -0.190000	    0.170000	   20.742188
   11.6824	  0.005000	  0.028500	  1.004000	   -0.280000	    0.000000	    0.350000	   20.718750
   11.6923	  0.006000	  0.046000	  1.006500	   -0.610000	    0.240000	    0.190000	   20.734375
   11.7023	 -0.005500	  0.024500	  0.988000	   -0.170000	   -0.240000	    0.400000	   20.710938
   11.7123	 -0.002000	  0.045500	  1.025000	   -0.780000	   -0.150000	    0.220000	   20.726563
   11.7223	  0.000000	  0.031000	  1.020000	   -0.210000	   -0.090000	    0.300000	   20.722656
   11.7323	  0.001000	  0.050500	  1.007000	   -0.450000	    0.290000	    0.090000	   20.703125
   11.7423	  0.001000	  0.025000	  0.987000	   -0.180000	   -0.300000	    0.280000	   20.703125
   11.7523	 -0.009000	  0.048500	  1.043000	   -0.760000	    0.030000	    0.230000	   20.746094
   11.7623	 -0.006000	  0.029500	  1.000000	   -0.120000	    0.120000	    0.330000	   20.742188
   11.7723	  0.006500	  0.048000	  1.003000	   -0.540000	    0.050000	    0.140000	   20.722656
   11.7824	  0.000000	  0.024500	  0.996000	   -0.290000	   -0.210000	    0.350000	   20.691406
   11.7923	 -0.013500	  0.048500	  1.021000	   -0.750000	   -0.190000	    0.220000	   20.722656
   11.8023	 -0.005500	  0.029500	  1.010000	   -0.210000	    0.070000	    0.290000	   20.726563
   11.8123	  0.011000	  0.046000	  1.012500	   -0.550000	    0.250000	    0.170000	   20.730469
   11.8223	 -0.005000	  0.029000	  0.986000	   -0.220000	   -0.250000	    0.410000	   20.738281
   11.8323	 -0.015500	  0.043000	  1.037000	   -0.840000	   -0.100000	    0.250000	   20.761719
   11.8423	  0.007500	  0.028500	  1.010500	   -0.210000	    0.310000	    0.300000	   20.761719
   11.8523	  0.010000	  0.045500	  0.986000	   -0.440000	   -0.060000	    0.270000	   20.734375
   11.8623	 -0.014000	  0.026500	  0.999000	   -0.140000	   -0.390000	    0.360000	   20.726563
   11.8723	 -0.016000	  0.048000	  1.027500	   -0.720000	   -0.210000	    0.240000	   20.730469
   11.8823	 -0.006500	  0.033500	  1.005500	   -0.310000	   -0.090000	    0.300000	   20.722656
   11.8923	 -0.001000	  0.043500	  1.013500	   -0.440000	    0.170000	    0.150000	   20.722656
   11.9023	 -0.001500	  0.028000	  0.983000	   -0.240000	   -0.240000	    0.350000	   20.703125
   11.9123	 -0.016000	  0.045500	  1.026000	   -0.640000	   -0.310000	    0.200000	   20.722656
   11.9223	 -0.006000	  0.030000	  1.027000	   -0.310000	    0.190000	    0.240000	   20.722656
   11.9327	  0.013000	  0.041500	  0.992000	   -0.470000	    0.150000	    0.200000	   20.710938
   11.9423	 -0.007000	  0.031000	  0.988000	   -0.260000	   -0.450000	    0.200000	   20.707031
   11.9523	 -0.015500	  0.048500	  1.035000	   -0.670000	   -0.240000	    0.260000	   20.707031
   11.9623	  0.008500	  0.035000	  0.995000	   -0.070000	    0.030000	    0.260000	   20.734375
   11.9723	  0.002500	  0.047000	  1.006000	   -0.440000	   -0.110000	    0.130000	   20.730469
   11.9824	 -0.016000	  0.029000	  0.986500	   -0.140000	   -0.290000	    0.280000	   20.730469
   11.9923	 -0.010000	  0.045000	  1.021500	   -0.740000	   -0.230000	    0.120000	   20.722656
   12.0023	 -0.003500	  0.026000	  1.023000	   -0.160000	   -0.150000	    0.210000	   20.742188
   12.0123	 -0.006000	  0.047500	  1.004000	   -0.450000	    0.330000	    0.130000	   20.726563
   12.0223	 -0.007500	  0.026000	  0.985000	   -0.200000	   -0.390000	    0.440000	   20.722656
   12.0324	 -0.008500	  0.047500	  1.043000	   -0.750000	   -0.240000	    0.210000	   20.726563
   12.0423	 -0.003500	  0.035500	  0.996500	   -0.230000	   -0.050000	    0.320000	   20.722656
   12.0523	  0.003500	  0.047500	  0.998000	   -0.580000	   -0.140000	    0.150000	   20.714844
   12.0623	  0.000000	  0.030500	  0.992500	   -0.230000	   -0.320000	    0.300000	   20.714844
   12.0723	 -0.010000	  0.044000	  1.017000	   -0.770000	   -0.350000	    0.120000	   20.714844
   12.0824	 -0.002500	  0.030000	  1.010500	   -0.190000	   -0.160000	    0.290000	   20.738281
   12.0924	  0.012000	  0.042000	  1.005500	   -0.600000	   -0.040000	    0.010000	   20.714844
   12.1024	 -0.008000	  0.028000	  0.988500	   -0.170000	   -0.430000	    0.290000	   20.750000
   12.1124	 -0.026000	  0.043000	  1.042500	   -0.790000	   -0.270000	    0.170000	   20.730469
   12.1224	  0.003500	  0.035500	  1.019500	   -0.160000	    0.000000	    0.300000	   20.738281
   12.1324	  0.011000	  0.044500	  0.991500	   -0.540000	   -0.150000	    0.100000	   20.730469
   12.1424	 -0.017000	  0.033500	  0.993500	   -0.190000	   -0.510000	    0.370000	   20.703125
   12.1524	 -0.007500	  0.043000	  1.027500	   -0.800000	   -0.400000	    0.170000	   20.710938
   12.1624	  0.005500	  0.030500	  1.005000	   -0.150000	   -0.260000	    0.300000	   20.714844
   12.1724	 -0.007000	  0.040000	  1.001500	   -0.530000	   -0.120000	    0.150000	   20.707031
   12.1824	 -0.002000	  0.029500	  0.988500	   -0.300000	   -0.490000	    0.320000	   20.703125
   12.1924	 -0.004500	  0.042000	  1.034000	   -0.710000	   -0.480000	    0.170000	   20.710938
   12.2024	 -0.007000	  0.040000	  1.022000	   -0.200000	   -0.050000	    0.260000	   20.707031
   12.2124	  0.008500	  0.041000	  0.997500	   -0.600000	    0.000000	    0.200000	   20.707031
   12.2224	  0.004500	  0.029500	  0.995500	   -0.290000	   -0.610000	    0.260000	   20.722656
   12.2324	 -0.012000	  0.043500	  1.032000	   -0.840000	   -0.470000	    0.240000	   20.734375
   12.2424	  0.000000	  0.036000	  1.004500	   -0.290000	   -0.190000	    0.330000	   20.742188
   12.2524	  0.012500	  0.042500	  1.004000	   -0.670000	   -0.100000	    0.170000	   20.726563
   12.2624	 -0.002000	  0.030000	  0.994500	   -0.290000	   -0.520000	    0.260000	   20.722656
   12.2724	 -0.013500	  0.046000	  1.031000	   -0.660000	   -0.350000	    0.120000	   20.738281
   12.2824	  0.002000	  0.036000	  1.014000	   -0.140000	   -0.040000	    0.270000	   20.753906
   12.2924	  0.006000	  0.041500	  1.009500	   -0.640000	   -0.100000	    0.050000	   20.746094
   12.3024	 -0.006000	  0.029500	  0.991000	   -0.160000	   -0.360000	    0.270000	   20.750000
   12.3124	 -0.013000	  0.038500	  1.031500	   -0.800000	   -0.290000	    0.140000	   20.726563
   12.3224	  0.005000	  0.033500	  1.013000	   -0.100000	    0.140000	    0.260000	   20.710938
   12.3324	  0.012500	  0.039500	  0.989500	   -0.530000	   -0.050000	    0.200000	   20.722656
   12.3424	 -0.007500	  0.029000	  0.996500	   -0.350000	   -0.650000	    0.380000	   20.726563
   12.3524	 -0.017000	  0.045000	  1.034000	   -0.780000	   -0.290000	    0.200000	   20.714844
   12.3624	  0.003000	  0.036000	  1.012000	   -0.220000	    0.070000	    0.310000	   20.714844
   12.3724	  0.011500	  0.040000	  1.004000	   -0.550000	    0.020000	    0.180000	   20.726563
   12.3824	  0.000000	  0.031000	  0.991500	   -0.220000	   -0.330000	    0.300000	   20.742188
   12.3924	 -0.016500	  0.048000	  1.026500	   -0.790000	   -0.560000	    0.330000	   20.730469
   12.4024	  0.003000	  0.032000	  1.032500	   -0.350000	    0.020000	    0.240000	   20.726563
   12.4124	  0.020500	  0.042500	  0.995500	   -0.350000	    0.260000	    0.150000	   20.742188
   12.4224	 -0.003000	  0.026000	  0.976500	   -0.260000	   -0.620000	    0.370000	   20.753906
   12.4324	 -0.020000	  0.051500	  1.037000	   -0.720000	   -0.300000	    0.190000	   20.742188
   12.4424	  0.009500	  0.031000	  1.012000	   -0.460000	    0.050000	    0.230000	   20.742188
   12.4524	  0.011500	  0.044500	  0.999500	   -0.490000	    0.020000	    0.240000	   20.730469
   12.4624	 -0.009000	  0.020000	  0.986000	   -0.230000	   -0.230000	    0.270000	   20.722656
   12.4724	 -0.013500	  0.050000	  1.020000	   -0.450000	   -0.320000	    0.310000	   20.738281
   12.4824	 -0.006500	  0.030500	  1.044000	   -0.360000	   -0.250000	    0.330000	   20.738281
   12.4924	  0.014000	  0.044500	  1.009000	   -0.340000	    0.530000	    0.220000	   20.718750
   12.5024	  0.005500	  0.015500	  0.968500	   -0.370000	   -0.250000	    0.230000	   20.714844
   12.5124	 -0.022500	  0.054000	  1.035500	   -0.470000	   -0.250000	    0.350000	   20.730469
   12.5224	 -0.003000	  0.036000	  1.023500	   -0.640000	    0.020000	    0.240000	   20.742188
   12.5324	  0.022000	  0.050500	  1.007500	   -0.390000	    0.160000	    0.380000	   20.742188
   12.5424	  0.000500	  0.020500	  0.982000	   -0.330000	   -0.280000	    0.200000	   20.734375
   12.5524	 -0.022500	  0.047000	  0.996500	   -0.470000	   -0.320000	    0.360000	   20.722656
   12.5624	 -0.005500	  0.032500	  1.043500	   -0.800000	   -0.150000	    0.190000	   20.714844
   12.5724	  0.026000	  0.041500	  1.012500	   -0.180000	    0.330000	    0.210000	   20.734375
   12.5824	 -0.000500	  0.024500	  0.973000	   -0.520000	   -0.240000	    0.190000	   20.753906
   12.5924	 -0.033500	  0.042000	  1.016000	   -0.330000	   -0.470000	    0.360000	   20.742188
