ï»¿Time_s    	AccX_g    	AccY_g    	AccZ_g    	GyroX_degs  	GyroY_degs  	GyroZ_degs  	IMU_Temperature
    0.1292	  0.002500	  0.028500	  1.034500	   -0.300000	   -0.200000	    0.310000	   19.085938
    0.1392	  0.015500	  0.049500	  1.010000	   -0.690000	    0.320000	    0.220000	   19.085938
    0.1492	  0.017000	  0.015500	  0.978500	   -0.200000	   -0.420000	    0.260000	   19.074219
    0.1594	 -0.006500	  0.047000	  1.045500	   -0.600000	   -0.320000	    0.190000	   19.058594
    0.1692	  0.008000	  0.026500	  1.001000	   -0.360000	    0.000000	    0.210000	   19.042969
    0.1792	  0.034000	  0.044000	  0.998500	   -0.500000	    0.080000	    0.110000	   19.085938
    0.1893	  0.006000	  0.015000	  0.991000	   -0.270000	   -0.590000	    0.290000	   19.093750
    0.1992	 -0.021500	  0.045500	  1.027500	   -0.750000	   -0.290000	    0.220000	   19.078125
    0.2092	  0.007000	  0.028500	  1.021500	   -0.370000	   -0.110000	    0.250000	   19.085938
    0.2192	  0.030000	  0.043500	  1.013000	   -0.600000	    0.090000	    0.140000	   19.089844
    0.2292	  0.002000	  0.017500	  0.976500	   -0.250000	   -0.470000	    0.370000	   19.101563
    0.2394	 -0.011000	  0.045000	  1.039500	   -0.690000	   -0.320000	    0.350000	   19.117188
    0.2492	  0.020000	  0.027000	  1.022500	   -0.330000	    0.150000	    0.250000	   19.082031
    0.2592	  0.022000	  0.043000	  0.994500	   -0.500000	    0.040000	    0.220000	   19.058594
    0.2692	 -0.002000	  0.016500	  0.986500	   -0.380000	   -0.570000	    0.320000	   19.042969
    0.2792	  0.001000	  0.049000	  1.033000	   -0.570000	   -0.310000	    0.250000	   19.082031
    0.2893	  0.008500	  0.027500	  1.010000	   -0.420000	   -0.240000	    0.310000	   19.089844
    0.2992	  0.019000	  0.046000	  1.011500	   -0.630000	    0.210000	    0.160000	   19.097656
    0.3092	  0.018000	  0.012500	  0.981000	   -0.300000	   -0.480000	    0.260000	   19.109375
    0.3194	 -0.009000	  0.049500	  1.037500	   -0.670000	   -0.530000	    0.280000	   19.101563
    0.3292	  0.000500	  0.027000	  1.029000	   -0.330000	    0.050000	    0.250000	   19.097656
    0.3392	  0.036500	  0.044000	  1.002500	   -0.530000	    0.240000	    0.250000	   19.078125
    0.3492	  0.008000	  0.013000	  0.983000	   -0.200000	   -0.570000	    0.230000	   19.074219
    0.3592	 -0.018500	  0.052500	  1.039000	   -0.620000	   -0.190000	    0.220000	   19.058594
    0.3692	  0.015000	  0.027000	  1.004500	   -0.330000	   -0.020000	    0.170000	   19.082031
    0.3792	  0.027000	  0.046000	  1.015500	   -0.500000	   -0.090000	    0.200000	   19.082031
    0.3892	 -0.002500	  0.013000	  0.976500	   -0.370000	   -0.390000	    0.480000	   19.082031
    0.3994	 -0.004500	  0.048000	  1.024500	   -0.700000	   -0.280000	    0.170000	   19.097656
    0.4092	  0.012000	  0.021500	  1.031000	   -0.500000	   -0.220000	    0.270000	   19.089844
    0.4192	  0.021500	  0.048000	  1.005000	   -0.630000	    0.150000	    0.270000	   19.089844
    0.4292	  0.007000	  0.012500	  0.983000	   -0.310000	   -0.580000	    0.340000	   19.089844
    0.4392	 -0.009000	  0.049000	  1.052000	   -0.720000	   -0.220000	    0.270000	   19.062500
    0.4496	  0.005000	  0.031000	  1.006000	   -0.420000	    0.010000	    0.200000	   19.058594
    0.4592	  0.027500	  0.045000	  1.004500	   -0.620000	   -0.040000	    0.200000	   19.113281
    0.4692	  0.016500	  0.015500	  0.987500	   -0.230000	   -0.350000	    0.260000	   19.109375
    0.4795	 -0.009500	  0.045500	  1.013500	   -0.710000	   -0.380000	    0.130000	   19.074219
    0.4892	  0.004500	  0.025000	  1.023500	   -0.320000	   -0.020000	    0.260000	   19.074219
    0.4993	  0.035000	  0.038500	  1.009500	   -0.450000	    0.230000	    0.220000	   19.074219
    0.5092	  0.007500	  0.018000	  0.978000	   -0.150000	   -0.520000	    0.310000	   19.082031
    0.5192	 -0.022000	  0.045500	  1.046500	   -0.750000	   -0.430000	    0.240000	   19.066406
    0.5292	  0.019000	  0.031000	  1.025500	   -0.380000	    0.200000	    0.260000	   19.070313
    0.5392	  0.031500	  0.045500	  0.996000	   -0.580000	    0.010000	    0.220000	   19.101563
    0.5492	 -0.006500	  0.017000	  0.992000	   -0.190000	   -0.490000	    0.280000	   19.097656
    0.5594	  0.001000	  0.045000	  1.031500	   -0.700000	   -0.200000	    0.170000	   19.062500
    0.5692	  0.015500	  0.023500	  1.005000	   -0.340000	    0.000000	    0.260000	   19.085938
    0.5792	  0.011500	  0.045000	  1.010500	   -0.450000	    0.090000	    0.120000	   19.121094
    0.5892	  0.015000	  0.011500	  0.978500	   -0.290000	   -0.310000	    0.220000	   19.097656
    0.5993	 -0.002500	  0.046000	  1.034500	   -0.590000	   -0.540000	    0.300000	   19.097656
    0.6093	 -0.007500	  0.031500	  1.033500	   -0.300000	    0.000000	    0.250000	   19.082031
    0.6192	  0.028500	  0.047000	  1.007000	   -0.570000	    0.270000	    0.130000	   19.070313
    0.6292	  0.020500	  0.012500	  0.982000	   -0.160000	   -0.550000	    0.340000	   19.093750
    0.6395	 -0.016000	  0.048000	  1.038000	   -0.610000	   -0.220000	    0.230000	   19.109375
    0.6493	  0.013500	  0.025500	  1.002000	   -0.400000	    0.000000	    0.290000	   19.085938
    0.6592	  0.036500	  0.044500	  1.004500	   -0.520000	    0.080000	    0.130000	   19.074219
    0.6692	 -0.002500	  0.014500	  0.987500	   -0.260000	   -0.380000	    0.220000	   19.082031
    0.6792	 -0.015000	  0.044500	  1.029500	   -0.600000	   -0.270000	    0.280000	   19.085938
    0.6892	  0.014500	  0.029000	  1.025000	   -0.310000	   -0.060000	    0.280000	   19.078125
    0.6993	  0.019500	  0.048000	  1.013000	   -0.650000	    0.160000	    0.160000	   19.074219
    0.7092	  0.007000	  0.017500	  0.982000	   -0.270000	   -0.350000	    0.340000	   19.062500
    0.7195	  0.003500	  0.042000	  1.037500	   -0.640000	   -0.200000	    0.280000	   19.085938
    0.7292	  0.009500	  0.029000	  1.016000	   -0.240000	   -0.040000	    0.300000	   19.093750
    0.7392	  0.018500	  0.044500	  0.998500	   -0.670000	    0.140000	    0.130000	   19.089844
    0.7493	  0.014500	  0.017000	  0.989000	   -0.340000	   -0.370000	    0.310000	   19.085938
    0.7593	 -0.005500	  0.047000	  1.031500	   -0.720000	   -0.430000	    0.410000	   19.093750
    0.7693	  0.025000	  0.054000	  1.008000	   -0.400000	    0.350000	    0.140000	   19.089844
    0.7793	  0.029000	  0.043500	  1.008000	   -0.510000	    0.220000	    0.070000	   19.089844
    0.7893	  0.012000	  0.015000	  0.988000	   -0.190000	   -0.470000	    0.320000	   19.085938
    0.7995	 -0.020500	  0.047000	  1.037500	   -0.730000	   -0.450000	    0.150000	   19.082031
    0.8093	  0.009500	  0.028000	  1.024000	   -0.370000	    0.120000	    0.340000	   19.097656
    0.8192	  0.037000	  0.041500	  0.998500	   -0.560000	    0.270000	    0.130000	   19.089844
    0.8293	  0.001000	  0.015000	  0.985500	   -0.290000	   -0.440000	    0.380000	   19.089844
    0.8392	 -0.010000	  0.050000	  1.034000	   -0.650000	   -0.150000	    0.160000	   19.113281
    0.8493	  0.015500	  0.028000	  1.007000	   -0.350000	    0.120000	    0.180000	   19.097656
    0.8593	  0.018500	  0.044500	  1.014000	   -0.600000	    0.060000	    0.190000	   19.082031
    0.8693	  0.006000	  0.013000	  0.978500	   -0.260000	   -0.240000	    0.270000	   19.066406
    0.8795	 -0.001500	  0.046500	  1.029500	   -0.640000	   -0.460000	    0.310000	   19.097656
    0.8893	  0.004500	  0.026500	  1.032000	   -0.390000	   -0.210000	    0.300000	   19.097656
    0.8993	  0.028000	  0.045000	  1.001500	   -0.620000	    0.160000	    0.170000	   19.105469
    0.9093	  0.012500	  0.012500	  0.985000	   -0.340000	   -0.520000	    0.350000	   19.105469
    0.9193	 -0.017000	  0.051500	  1.048000	   -0.720000	   -0.350000	    0.200000	   19.078125
    0.9293	  0.007500	  0.031000	  1.003500	   -0.420000	    0.010000	    0.210000	   19.074219
    0.9393	  0.034000	  0.046500	  1.011000	   -0.400000	    0.070000	    0.190000	   19.105469
    0.9493	  0.007500	  0.016000	  0.982500	   -0.150000	   -0.350000	    0.290000	   19.113281
    0.9595	 -0.009000	  0.047500	  1.014000	   -0.740000	   -0.360000	    0.330000	   19.101563
    0.9693	  0.013500	  0.023500	  1.031000	   -0.340000	   -0.040000	    0.210000	   19.085938
    0.9793	  0.024500	  0.043000	  1.009000	   -0.580000	    0.090000	    0.260000	   19.097656
    0.9893	 -0.001500	  0.016000	  0.976000	   -0.280000	   -0.640000	    0.310000	   19.089844
    0.9993	 -0.009000	  0.044500	  1.052000	   -0.630000	   -0.240000	    0.160000	   19.097656
    1.0093	  0.017000	  0.031000	  1.012500	   -0.250000	    0.160000	    0.250000	   19.105469
    1.0193	  0.018500	  0.048000	  0.997500	   -0.520000	   -0.130000	    0.150000	   19.074219
    1.0293	  0.004500	  0.016500	  0.994500	   -0.340000	   -0.420000	    0.340000	   19.082031
    1.0395	  0.002500	  0.046500	  1.023000	   -0.680000	   -0.430000	    0.230000	   19.093750
    1.0493	  0.000500	  0.025500	  1.011000	   -0.190000	   -0.060000	    0.190000	   19.074219
    1.0593	  0.022500	  0.041500	  1.011000	   -0.610000	    0.230000	    0.100000	   19.097656
    1.0693	  0.022500	  0.012500	  0.978500	   -0.330000	   -0.610000	    0.340000	   19.089844
    1.0793	 -0.017500	  0.048500	  1.038000	   -0.630000	   -0.410000	    0.140000	   19.089844
    1.0893	  0.000500	  0.031500	  1.032500	   -0.430000	    0.150000	    0.320000	   19.097656
    1.0993	  0.041500	  0.047000	  1.002500	   -0.590000	    0.310000	    0.130000	   19.093750
    1.1093	 -0.006000	  0.029000	  0.987000	   -0.130000	   -0.600000	    0.330000	   19.109375
    1.1195	 -0.017500	  0.049000	  1.036500	   -0.740000	   -0.300000	    0.170000	   19.109375
    1.1293	  0.026000	  0.022000	  1.001500	   -0.390000	   -0.030000	    0.260000	   19.089844
    1.1393	  0.027500	  0.045000	  1.006500	   -0.550000	    0.040000	    0.120000	   19.058594
    1.1493	 -0.008500	  0.013500	  0.981500	   -0.360000	   -0.460000	    0.340000	   19.062500
    1.1593	 -0.005000	  0.045500	  1.030000	   -0.650000	   -0.320000	    0.250000	   19.093750
    1.1693	  0.007500	  0.029500	  1.035000	   -0.300000	   -0.200000	    0.270000	   19.109375
    1.1793	  0.014000	  0.050000	  1.008500	   -0.550000	    0.250000	    0.220000	   19.089844
    1.1893	  0.016500	  0.013000	  0.978000	   -0.360000	   -0.440000	    0.320000	   19.105469
    1.1995	  0.001000	  0.045500	  1.040500	   -0.480000	   -0.330000	    0.300000	   19.093750
    1.2093	  0.004500	  0.028500	  1.008500	   -0.230000	   -0.010000	    0.250000	   19.101563
    1.2193	  0.025500	  0.043500	  1.001500	   -0.570000	    0.110000	    0.210000	   19.089844
    1.2293	  0.013500	  0.014500	  0.986500	   -0.300000	   -0.470000	    0.370000	   19.085938
    1.2393	 -0.015000	  0.046500	  1.027500	   -0.760000	   -0.450000	    0.180000	   19.105469
    1.2493	  0.005500	  0.028000	  1.020500	   -0.320000	    0.040000	    0.350000	   19.109375
    1.2593	  0.034000	  0.043500	  1.009500	   -0.530000	    0.230000	    0.140000	   19.105469
    1.2693	  0.005000	  0.015000	  0.986000	   -0.250000	   -0.430000	    0.380000	   19.093750
    1.2795	 -0.012500	  0.048000	  1.040000	   -0.680000	   -0.300000	    0.180000	   19.105469
    1.2893	  0.018000	  0.025500	  1.018500	   -0.300000	    0.160000	    0.270000	   19.097656
    1.2993	  0.026500	  0.046000	  1.003000	   -0.510000	   -0.030000	    0.130000	   19.101563
    1.3093	  0.004000	  0.013500	  0.984000	   -0.300000	   -0.510000	    0.220000	   19.097656
    1.3193	 -0.002500	  0.049000	  1.029500	   -0.710000	   -0.320000	    0.300000	   19.097656
    1.3293	  0.004000	  0.028000	  1.013000	   -0.320000	   -0.060000	    0.250000	   19.078125
    1.3393	  0.020500	  0.046500	  1.011000	   -0.550000	    0.120000	    0.060000	   19.093750
    1.3493	  0.016500	  0.011000	  0.978000	   -0.170000	   -0.320000	    0.290000	   19.101563
    1.3595	 -0.013000	  0.048500	  1.035000	   -0.750000	   -0.620000	    0.340000	   19.089844
    1.3693	  0.002000	  0.027000	  1.028000	   -0.360000	    0.050000	    0.220000	   19.062500
    1.3793	  0.040000	  0.045500	  1.002500	   -0.550000	    0.240000	    0.280000	   19.074219
    1.3893	  0.009000	  0.012500	  0.986500	   -0.270000	   -0.550000	    0.250000	   19.105469
    1.3993	 -0.022500	  0.053000	  1.035000	   -0.740000	   -0.230000	    0.190000	   19.089844
    1.4093	  0.014500	  0.028000	  1.008500	   -0.400000	    0.070000	    0.250000	   19.093750
    1.4193	  0.034000	  0.048500	  1.016000	   -0.410000	    0.090000	    0.160000	   19.101563
    1.4293	  0.000000	  0.014000	  0.971000	   -0.190000	   -0.360000	    0.230000	   19.078125
    1.4395	 -0.006000	  0.047500	  1.019000	   -0.630000	   -0.280000	    0.260000	   19.082031
    1.4497	  0.014000	  0.022500	  1.037500	   -0.540000	   -0.170000	    0.210000	   19.078125
    1.4593	  0.017500	  0.047000	  1.006500	   -0.440000	    0.250000	    0.230000	   19.066406
    1.4693	  0.007500	  0.012500	  0.980000	   -0.370000	   -0.430000	    0.290000	   19.089844
    1.4793	 -0.001500	  0.048000	  1.049000	   -0.680000	   -0.270000	    0.280000	   19.082031
    1.4893	  0.008000	  0.028000	  1.006500	   -0.490000	    0.080000	    0.270000	   19.082031
    1.4993	  0.025500	  0.052000	  1.006000	   -0.550000	    0.180000	    0.270000	   19.074219
    1.5093	  0.014500	  0.013000	  0.992500	   -0.280000	   -0.330000	    0.180000	   19.078125
    1.5195	 -0.006500	  0.049000	  1.018500	   -0.630000	   -0.340000	    0.170000	   19.089844
    1.5293	  0.001000	  0.021500	  1.017500	   -0.270000	   -0.070000	    0.250000	   19.082031
    1.5393	  0.033000	  0.043500	  1.014000	   -0.530000	    0.320000	    0.130000	   19.074219
    1.5493	  0.013500	  0.013500	  0.975000	   -0.200000	   -0.540000	    0.170000	   19.085938
    1.5593	 -0.022500	  0.048500	  1.045000	   -0.510000	   -0.370000	    0.280000	   19.105469
    1.5693	  0.009500	  0.027000	  1.024500	   -0.450000	    0.240000	    0.300000	   19.093750
    1.5793	  0.034000	  0.050500	  1.003000	   -0.570000	    0.080000	    0.190000	   19.117188
    1.5893	 -0.002000	  0.014500	  0.987000	   -0.210000	   -0.520000	    0.320000	   19.066406
    1.5995	 -0.006500	  0.048500	  1.029000	   -0.590000	   -0.270000	    0.260000	   19.046875
    1.6093	  0.018000	  0.019500	  1.006000	   -0.400000	   -0.210000	    0.350000	   19.121094
    1.6193	  0.020500	  0.046500	  1.006500	   -0.450000	    0.060000	    0.210000	   19.117188
    1.6293	  0.005500	  0.010500	  0.980500	   -0.350000	   -0.500000	    0.240000	   19.105469
    1.6393	 -0.008000	  0.045500	  1.037000	   -0.660000	   -0.460000	    0.200000	   19.105469
    1.6493	 -0.003000	  0.030500	  1.032500	   -0.470000	    0.020000	    0.380000	   19.109375
    1.6594	  0.026000	  0.050500	  1.009000	   -0.540000	    0.270000	    0.260000	   19.113281
    1.6693	 -0.005500	  0.050500	  1.023500	   -0.380000	   -0.450000	    0.280000	   19.097656
    1.6795	 -0.008000	  0.048500	  1.032500	   -0.490000	   -0.340000	    0.220000	   19.097656
    1.6893	  0.007000	  0.025500	  1.009000	   -0.390000	   -0.110000	    0.250000	   19.105469
    1.6993	  0.031000	  0.046000	  1.007000	   -0.530000	    0.000000	    0.160000	   19.089844
    1.7093	  0.003000	  0.016000	  0.981500	   -0.360000	   -0.350000	    0.320000	   19.093750
    1.7193	 -0.012000	  0.046000	  1.028500	   -0.680000	   -0.420000	    0.220000	   19.117188
    1.7293	  0.012500	  0.026000	  1.022000	   -0.350000	    0.070000	    0.200000	   19.089844
    1.7393	  0.021500	  0.049000	  1.011000	   -0.520000	    0.080000	    0.220000	   19.089844
    1.7493	  0.002500	  0.015500	  0.990000	   -0.340000	   -0.510000	    0.330000	   19.085938
    1.7595	  0.002000	  0.045000	  1.036500	   -0.640000	   -0.230000	    0.150000	   19.074219
    1.7693	  0.009000	  0.026500	  1.014000	   -0.360000	    0.010000	    0.270000	   19.093750
    1.7793	  0.016500	  0.047500	  1.001000	   -0.550000	   -0.020000	    0.160000	   19.117188
    1.7893	  0.018000	  0.014000	  0.983500	   -0.470000	   -0.340000	    0.210000	   19.101563
    1.7994	 -0.004000	  0.047500	  1.031000	   -0.630000	   -0.430000	    0.310000	   19.089844
    1.8093	 -0.006000	  0.026500	  1.011000	   -0.240000	   -0.120000	    0.210000	   19.089844
    1.8193	  0.026000	  0.046500	  1.012000	   -0.700000	    0.140000	    0.140000	   19.066406
    1.8293	  0.017000	  0.011000	  0.984000	   -0.180000	   -0.440000	    0.270000	   19.074219
    1.8395	 -0.020500	  0.050000	  1.039000	   -0.780000	   -0.470000	    0.170000	   19.074219
    1.8493	  0.008500	  0.023000	  1.021500	   -0.410000	    0.180000	    0.250000	   19.093750
    1.8593	  0.040500	  0.045000	  0.998500	   -0.450000	    0.140000	    0.170000	   19.121094
    1.8693	 -0.001000	  0.012000	  0.988000	   -0.310000	   -0.520000	    0.270000	   19.105469
    1.8793	 -0.016500	  0.052000	  1.031000	   -0.660000	   -0.270000	    0.300000	   19.093750
    1.8893	  0.018500	  0.025500	  1.010000	   -0.340000	   -0.030000	    0.250000	   19.097656
    1.8994	  0.021000	  0.047500	  1.015000	   -0.570000	    0.090000	    0.220000	   19.117188
    1.9093	  0.005500	  0.013000	  0.973000	   -0.280000	   -0.500000	    0.220000	   19.109375
    1.9195	  0.001500	  0.047500	  1.027000	   -0.690000	   -0.320000	    0.130000	   19.089844
    1.9293	  0.004500	  0.024500	  1.037000	   -0.280000	    0.010000	    0.180000	   19.113281
    1.9393	  0.020000	  0.048000	  1.006500	   -0.590000	    0.310000	    0.250000	   19.121094
    1.9493	  0.013000	  0.012000	  0.981500	   -0.250000	   -0.460000	    0.240000	   19.105469
    1.9593	 -0.006500	  0.051500	  1.044500	   -0.620000	   -0.260000	    0.230000	   19.082031
    1.9693	  0.008000	  0.028500	  1.002500	   -0.350000	    0.010000	    0.240000	   19.097656
    1.9793	  0.028500	  0.050000	  1.009000	   -0.540000	    0.100000	    0.100000	   19.089844
    1.9894	  0.006000	  0.014000	  0.987000	   -0.230000	   -0.400000	    0.250000	   19.082031
    1.9995	 -0.008000	  0.049500	  1.022500	   -0.690000	   -0.240000	    0.240000	   19.093750
    2.0093	  0.010500	  0.022500	  1.021000	   -0.210000	   -0.170000	    0.200000	   19.089844
    2.0193	  0.024500	  0.044500	  1.009500	   -0.670000	    0.200000	    0.130000	   19.082031
    2.0293	  0.005000	  0.015000	  0.982000	   -0.250000	   -0.410000	    0.240000	   19.093750
    2.0393	 -0.006000	  0.047000	  1.050500	   -0.790000	   -0.290000	    0.280000	   19.105469
    2.0493	  0.012000	  0.029000	  1.011000	   -0.330000	    0.090000	    0.150000	   19.132813
    2.0593	  0.019500	  0.047500	  1.004500	   -0.660000	   -0.010000	    0.160000	   19.109375
    2.0693	  0.007500	  0.016500	  0.989000	   -0.170000	   -0.290000	    0.300000	   19.105469
    2.0795	 -0.001500	  0.047500	  1.024500	   -0.640000	   -0.230000	    0.270000	   19.109375
    2.0894	  0.003000	  0.023000	  1.012000	   -0.320000	    0.020000	    0.230000	   19.105469
    2.0993	  0.027500	  0.040000	  1.004500	   -0.690000	    0.290000	    0.230000	   19.093750
    2.1093	  0.004000	  0.025000	  0.994000	   -0.300000	   -0.480000	    0.330000	   19.105469
    2.1193	 -0.023000	  0.046500	  1.043000	   -0.660000	   -0.340000	    0.180000	   19.093750
    2.1293	  0.003500	  0.032500	  1.029500	   -0.400000	    0.020000	    0.270000	   19.089844
    2.1393	  0.038500	  0.047500	  1.005000	   -0.560000	    0.250000	    0.160000	   19.082031
    2.1493	  0.005500	  0.016000	  0.979500	   -0.140000	   -0.570000	    0.190000	   19.101563
    2.1595	 -0.011000	  0.049500	  1.031000	   -0.690000	   -0.220000	    0.140000	   19.128906
    2.1693	  0.022000	  0.023500	  1.009000	   -0.360000	    0.010000	    0.320000	   19.113281
    2.1793	  0.021000	  0.044000	  1.007500	   -0.540000	    0.060000	    0.120000	   19.097656
    2.1894	 -0.005000	  0.014500	  0.976500	   -0.340000	   -0.430000	    0.310000	   19.093750
    2.1993	  0.001500	  0.045000	  1.034000	   -0.710000	   -0.400000	    0.200000	   19.078125
    2.2093	  0.013000	  0.031500	  1.030500	   -0.310000	   -0.060000	    0.310000	   19.089844
    2.2193	  0.011500	  0.047500	  1.005500	   -0.690000	    0.210000	    0.170000	   19.117188
    2.2293	  0.010500	  0.015500	  0.990000	   -0.320000	   -0.320000	    0.360000	   19.121094
    2.2395	  0.005000	  0.044500	  1.039500	   -0.670000	   -0.300000	    0.190000	   19.089844
    2.2493	  0.002000	  0.030000	  1.004500	   -0.270000	    0.000000	    0.330000	   19.097656
    2.2593	  0.021000	  0.043500	  1.003500	   -0.570000	    0.090000	    0.190000	   19.097656
    2.2693	  0.020000	  0.015500	  0.988500	   -0.300000	   -0.380000	    0.320000	   19.089844
    2.2793	 -0.011500	  0.044500	  1.027500	   -0.690000	   -0.240000	    0.270000	   19.105469
    2.2894	 -0.002000	  0.029000	  1.018000	   -0.330000	   -0.130000	    0.230000	   19.109375
    2.2993	  0.033000	  0.044500	  1.013500	   -0.670000	    0.150000	    0.220000	   19.105469
    2.3093	  0.008000	  0.016500	  0.983000	   -0.230000	   -0.360000	    0.370000	   19.121094
    2.3195	 -0.018000	  0.045500	  1.044500	   -0.670000	   -0.370000	    0.300000	   19.085938
    2.3293	  0.021000	  0.025500	  1.014500	   -0.270000	    0.260000	    0.240000	   19.089844
    2.3393	  0.033500	  0.044500	  0.994000	   -0.540000	    0.020000	    0.150000	   19.121094
    2.3493	 -0.005500	  0.014500	  0.992000	   -0.290000	   -0.530000	    0.340000	   19.101563
    2.3593	 -0.009500	  0.048000	  1.031500	   -0.740000	   -0.230000	    0.170000	   19.070313
    2.3693	  0.011000	  0.030000	  1.011000	   -0.280000	   -0.090000	    0.260000	   19.101563
    2.3793	  0.019000	  0.043000	  1.012500	   -0.610000	    0.100000	    0.140000	   19.101563
    2.3893	  0.011000	  0.017500	  0.976500	   -0.200000	   -0.330000	    0.310000	   19.085938
    2.3996	 -0.008500	  0.045000	  1.032500	   -0.780000	   -0.440000	    0.230000	   19.078125
    2.4093	  0.003500	  0.028500	  1.037500	   -0.270000	    0.040000	    0.340000	   19.089844
    2.4193	  0.029500	  0.042500	  0.998000	   -0.460000	    0.330000	    0.130000	   19.097656
    2.4293	  0.006500	  0.018000	  0.982500	   -0.370000	   -0.590000	    0.400000	   19.109375
    2.4393	 -0.012000	  0.051500	  1.044000	   -0.680000	   -0.300000	    0.200000	   19.113281
    2.4497	  0.017000	  0.027000	  1.000000	   -0.380000	   -0.050000	    0.220000	   19.101563
    2.4593	  0.025500	  0.046000	  1.007500	   -0.580000	    0.030000	    0.220000	   19.101563
    2.4693	 -0.001000	  0.015500	  0.987000	   -0.250000	   -0.280000	    0.330000	   19.101563
    2.4796	 -0.001000	  0.046500	  1.024500	   -0.670000	   -0.230000	    0.090000	   19.105469
    2.4893	  0.011500	  0.024000	  1.029000	   -0.360000	   -0.150000	    0.210000	   19.117188
    2.4994	  0.017500	  0.046500	  1.009500	   -0.510000	    0.250000	    0.110000	   19.117188
    2.5093	  0.011000	  0.013500	  0.979500	   -0.320000	   -0.380000	    0.300000	   19.121094
    2.5194	 -0.001500	  0.048000	  1.049500	   -0.600000	   -0.290000	    0.250000	   19.105469
    2.5293	  0.005500	  0.031000	  1.003500	   -0.290000	    0.030000	    0.240000	   19.078125
    2.5393	  0.021500	  0.045500	  1.003500	   -0.720000	   -0.010000	    0.150000	   19.089844
    2.5493	  0.013500	  0.017000	  0.990500	   -0.280000	   -0.380000	    0.290000	   19.125000
    2.5596	 -0.010000	  0.045500	  1.021500	   -0.650000	   -0.210000	    0.310000	   19.093750
    2.5693	  0.004000	  0.025000	  1.013000	   -0.280000	   -0.080000	    0.240000	   19.078125
    2.5794	  0.036500	  0.035500	  1.005500	   -0.470000	    0.130000	    0.060000	   19.078125
    2.5893	  0.002500	  0.019500	  0.988000	   -0.200000	   -0.520000	    0.380000	   19.101563
    2.5994	 -0.026000	  0.046000	  1.048500	   -0.860000	   -0.280000	    0.250000	   19.097656
    2.6093	  0.018000	  0.034000	  1.020500	   -0.320000	    0.190000	    0.270000	   19.101563
    2.6194	  0.033500	  0.042000	  1.000000	   -0.630000	   -0.010000	    0.140000	   19.117188
    2.6293	 -0.005000	  0.021000	  0.985500	   -0.190000	   -0.450000	    0.390000	   19.121094
    2.6396	 -0.001500	  0.043500	  1.026000	   -0.680000	   -0.170000	    0.150000	   19.117188
    2.6493	  0.020000	  0.027500	  1.013500	   -0.320000	   -0.140000	    0.300000	   19.101563
    2.6594	  0.014000	  0.040000	  1.004500	   -0.460000	    0.190000	    0.150000	   19.085938
    2.6693	  0.006500	  0.017500	  0.978500	   -0.310000	   -0.430000	    0.300000	   19.105469
    2.6794	 -0.001500	  0.041500	  1.043000	   -0.740000	   -0.480000	    0.170000	   19.117188
    2.6895	  0.004000	  0.035000	  1.028000	   -0.360000	    0.110000	    0.280000	   19.125000
    2.6994	  0.017500	  0.010000	  0.986500	   -0.380000	   -0.360000	    0.220000	   19.105469
    2.7094	  0.011000	  0.018000	  0.992500	   -0.260000	   -0.460000	    0.270000	   19.105469
    2.7196	 -0.007000	  0.046500	  1.038500	   -0.670000	   -0.260000	    0.250000	   19.125000
    2.7294	  0.011000	  0.030000	  1.000500	   -0.270000	   -0.030000	    0.180000	   19.113281
    2.7394	  0.026500	  0.041000	  1.008000	   -0.590000	    0.040000	    0.130000	   19.101563
    2.7494	  0.007500	  0.019000	  0.982000	   -0.410000	   -0.430000	    0.280000	   19.113281
    2.7594	 -0.009000	  0.043500	  1.028500	   -0.690000	   -0.400000	    0.150000	   19.128906
    2.7694	  0.009000	  0.032000	  1.026500	   -0.220000	    0.000000	    0.210000	   19.117188
    2.7794	  0.022000	  0.043500	  1.009500	   -0.640000	    0.220000	    0.200000	   19.109375
    2.7894	  0.005000	  0.018000	  0.984500	   -0.420000	   -0.330000	    0.290000	   19.085938
    2.7996	 -0.005000	  0.043000	  1.043000	   -0.620000	   -0.120000	    0.140000	   19.093750
    2.8094	  0.016000	  0.029500	  1.006500	   -0.280000	    0.130000	    0.250000	   19.105469
    2.8194	  0.024500	  0.042500	  0.995500	   -0.530000	   -0.080000	    0.100000	   19.089844
    2.8294	  0.003500	  0.018000	  0.994000	   -0.330000	   -0.500000	    0.290000	   19.128906
    2.8394	 -0.013000	  0.047000	  1.030500	   -0.750000	   -0.340000	    0.230000	   19.105469
    2.8494	  0.003000	  0.033000	  1.014000	   -0.410000	   -0.090000	    0.230000	   19.097656
    2.8594	  0.028500	  0.039000	  1.015000	   -0.680000	    0.160000	    0.130000	   19.117188
    2.8694	  0.012500	  0.018500	  0.979000	   -0.110000	   -0.360000	    0.390000	   19.148438
    2.8796	 -0.015000	  0.043500	  1.039000	   -0.770000	   -0.360000	    0.160000	   19.152344
    2.8894	  0.014000	  0.031000	  1.028000	   -0.360000	    0.110000	    0.360000	   19.121094
    2.8994	  0.034000	  0.039500	  0.994000	   -0.620000	    0.140000	    0.180000	   19.078125
    2.9094	 -0.004500	  0.021500	  0.987000	   -0.290000	   -0.550000	    0.270000	   19.082031
    2.9194	 -0.008000	  0.048000	  1.037500	   -0.650000	   -0.120000	    0.200000	   19.109375
    2.9294	  0.022500	  0.030500	  1.004000	   -0.230000	    0.030000	    0.270000	   19.101563
    2.9394	  0.017000	  0.042500	  1.009500	   -0.630000	   -0.070000	    0.070000	   19.109375
    2.9494	  0.001500	  0.017500	  0.982500	   -0.220000	   -0.260000	    0.280000	   19.101563
    2.9596	  0.001500	  0.043000	  1.030000	   -0.670000	   -0.470000	    0.250000	   19.097656
    2.9694	  0.004000	  0.029500	  1.032000	   -0.230000	   -0.150000	    0.330000	   19.101563
    2.9794	  0.022000	  0.042000	  1.001500	   -0.650000	    0.310000	    0.260000	   19.093750
    2.9894	  0.017500	  0.016000	  0.983500	   -0.250000	   -0.480000	    0.320000	   19.101563
    2.9994	 -0.008500	  0.046000	  1.046000	   -0.790000	   -0.320000	    0.180000	   19.117188
    3.0094	  0.004500	  0.035000	  1.000500	   -0.310000	    0.090000	    0.200000	   19.136719
    3.0194	  0.029500	  0.042000	  1.010000	   -0.700000	   -0.090000	    0.120000	   19.121094
    3.0294	  0.007000	  0.018500	  0.986000	   -0.140000	   -0.370000	    0.250000	   19.097656
    3.0396	 -0.015000	  0.044500	  1.021500	   -0.810000	   -0.410000	    0.240000	   19.097656
    3.0494	  0.013500	  0.025500	  1.023000	   -0.290000	   -0.080000	    0.350000	   19.085938
    3.0594	  0.035500	  0.037500	  1.000000	   -0.660000	    0.110000	    0.170000	   19.105469
    3.0694	 -0.005500	  0.020500	  0.990500	   -0.270000	   -0.560000	    0.360000	   19.097656
    3.0794	 -0.016500	  0.044000	  1.048500	   -0.870000	   -0.090000	    0.110000	   19.097656
    3.0894	  0.021000	  0.035000	  1.011500	   -0.230000	    0.190000	    0.300000	   19.101563
    3.0994	  0.022500	  0.040000	  1.000000	   -0.550000	    0.050000	   -0.020000	   19.093750
    3.1094	  0.001500	  0.035000	  0.996500	   -0.220000	   -0.300000	    0.360000	   19.109375
    3.1196	  0.004000	  0.041000	  1.022500	   -0.860000	   -0.240000	    0.300000	   19.125000
    3.1294	  0.007500	  0.029500	  1.019000	   -0.150000	    0.010000	    0.250000	   19.113281
    3.1394	  0.020500	  0.035500	  1.002000	   -0.520000	    0.020000	    0.130000	   19.113281
    3.1494	  0.013500	  0.020500	  0.984500	   -0.210000	   -0.490000	    0.390000	   19.109375
    3.1594	 -0.015500	  0.042500	  1.046500	   -0.740000	   -0.400000	    0.250000	   19.113281
    3.1694	  0.008500	  0.035500	  1.027500	   -0.270000	    0.110000	    0.300000	   19.117188
    3.1794	  0.035500	  0.040000	  0.993500	   -0.610000	    0.240000	    0.190000	   19.121094
    3.1894	  0.001000	  0.019500	  0.994500	   -0.200000	   -0.580000	    0.400000	   19.136719
    3.1996	 -0.010000	  0.045000	  1.031500	   -0.720000	   -0.130000	    0.240000	   19.128906
    3.2094	  0.019500	  0.029500	  1.000500	   -0.280000	    0.140000	    0.180000	   19.105469
    3.2194	  0.021000	  0.039000	  1.011000	   -0.510000	   -0.020000	    0.170000	   19.109375
    3.2294	  0.002500	  0.017000	  0.978000	   -0.260000	   -0.310000	    0.310000	   19.132813
    3.2394	 -0.004500	  0.044500	  1.032000	   -0.680000	   -0.350000	    0.100000	   19.132813
    3.2494	  0.003000	  0.032500	  1.033500	   -0.250000	   -0.070000	    0.240000	   19.113281
    3.2594	  0.021500	  0.046000	  1.008500	   -0.580000	    0.240000	    0.200000	   19.097656
    3.2694	  0.010500	  0.016500	  0.980500	   -0.120000	   -0.570000	    0.440000	   19.121094
    3.2796	 -0.008500	  0.046000	  1.044500	   -0.700000	   -0.330000	    0.220000	   19.105469
    3.2894	  0.014500	  0.028000	  1.000500	   -0.240000	    0.140000	    0.230000	   19.105469
    3.2994	  0.032000	  0.043000	  1.000000	   -0.500000	    0.050000	    0.220000	   19.105469
    3.3094	  0.002500	  0.017000	  0.992500	   -0.380000	   -0.550000	    0.420000	   19.093750
    3.3194	 -0.017000	  0.046000	  1.024500	   -0.720000	   -0.310000	    0.140000	   19.097656
    3.3294	  0.009000	  0.031500	  1.022500	   -0.320000	   -0.040000	    0.350000	   19.074219
    3.3394	  0.027500	  0.041000	  1.013000	   -0.570000	    0.310000	    0.130000	   19.089844
    3.3494	  0.005500	  0.020000	  0.977000	   -0.090000	   -0.430000	    0.430000	   19.101563
    3.3596	 -0.011000	  0.043500	  1.043500	   -0.670000	   -0.280000	    0.200000	   19.121094
    3.3694	  0.019500	  0.030500	  1.022500	   -0.250000	    0.140000	    0.360000	   19.105469
    3.3794	  0.025500	  0.040500	  0.990000	   -0.530000	    0.040000	    0.120000	   19.125000
    3.3894	 -0.002500	  0.020000	  0.993500	   -0.200000	   -0.440000	    0.360000	   19.121094
    3.3994	 -0.005000	  0.047000	  1.031000	   -0.790000	   -0.300000	    0.290000	   19.078125
    3.4094	  0.008500	  0.032000	  1.009500	   -0.300000	   -0.040000	    0.190000	   19.105469
    3.4194	  0.021000	  0.039500	  1.012500	   -0.410000	    0.050000	    0.180000	   19.117188
    3.4294	  0.014000	  0.017000	  0.978500	   -0.170000	   -0.410000	    0.390000	   19.109375
    3.4396	 -0.011500	  0.045500	  1.034500	   -0.650000	   -0.480000	    0.230000	   19.109375
    3.4498	  0.004500	  0.029000	  1.032000	   -0.390000	    0.110000	    0.250000	   19.109375
    3.4594	  0.036500	  0.039000	  0.996500	   -0.630000	    0.090000	    0.200000	   19.117188
    3.4694	  0.008000	  0.016500	  0.985500	   -0.260000	   -0.580000	    0.360000	   19.128906
    3.4794	 -0.017500	  0.050500	  1.038000	   -0.750000	   -0.310000	    0.300000	   19.105469
    3.4894	  0.015500	  0.030000	  1.005000	   -0.330000	   -0.030000	    0.230000	   19.093750
    3.4994	  0.028000	  0.044000	  1.014000	   -0.540000	   -0.060000	    0.070000	   19.082031
    3.5094	 -0.001000	  0.015000	  0.980500	   -0.190000	   -0.330000	    0.370000	   19.089844
    3.5196	 -0.008500	  0.045500	  1.027000	   -0.730000	   -0.350000	    0.240000	   19.101563
    3.5294	  0.015000	  0.024000	  1.027000	   -0.270000	   -0.010000	    0.340000	   19.121094
    3.5394	  0.023500	  0.044000	  1.006500	   -0.570000	    0.100000	    0.210000	   19.121094
    3.5494	  0.003000	  0.013000	  0.983500	   -0.360000	   -0.520000	    0.230000	   19.117188
    3.5594	 -0.010000	  0.048500	  1.049000	   -0.800000	   -0.190000	    0.230000	   19.101563
    3.5694	  0.009500	  0.031000	  1.006000	   -0.150000	    0.010000	    0.310000	   19.097656
    3.5794	  0.026000	  0.044500	  1.004000	   -0.680000	    0.030000	    0.230000	   19.093750
    3.5894	  0.013000	  0.019000	  0.984500	   -0.190000	   -0.450000	    0.300000	   19.105469
    3.5997	 -0.006000	  0.045500	  1.020000	   -0.630000	   -0.240000	    0.190000	   19.117188
    3.6094	  0.006000	  0.026500	  1.020000	   -0.380000	    0.030000	    0.290000	   19.113281
    3.6194	  0.031000	  0.037000	  1.006500	   -0.670000	    0.270000	    0.040000	   19.105469
    3.6294	  0.008000	  0.020000	  0.982500	   -0.120000	   -0.550000	    0.270000	   19.109375
    3.6394	 -0.020000	  0.045500	  1.047500	   -0.720000	   -0.390000	    0.190000	   19.093750
    3.6494	  0.017500	  0.033000	  1.019500	   -0.230000	    0.300000	    0.330000	   19.066406
    3.6594	  0.032000	  0.042500	  0.997000	   -0.450000	    0.080000	    0.140000	   19.105469
    3.6695	 -0.003500	  0.021000	  0.992500	   -0.210000	   -0.500000	    0.330000	   19.128906
    3.6796	  0.012000	  0.019000	  1.016000	   -0.490000	   -0.160000	    0.190000	   19.117188
    3.6895	  0.016000	  0.026000	  1.007000	   -0.290000	   -0.090000	    0.200000	   19.117188
    3.6994	  0.020500	  0.040500	  1.010000	   -0.560000	    0.060000	    0.090000	   19.101563
    3.7094	  0.011500	  0.015000	  0.977500	   -0.370000	   -0.380000	    0.340000	   19.097656
    3.7194	 -0.004500	  0.047000	  1.036500	   -0.640000	   -0.470000	    0.270000	   19.101563
    3.7294	  0.000500	  0.033000	  1.034500	   -0.420000	   -0.020000	    0.350000	   19.121094
    3.7394	  0.029000	  0.044500	  1.005000	   -0.630000	    0.200000	    0.190000	   19.125000
    3.7494	  0.013000	  0.016500	  0.983000	   -0.210000	   -0.400000	    0.380000	   19.113281
    3.7596	 -0.013000	  0.048500	  1.041000	   -0.700000	   -0.280000	    0.230000	   19.117188
    3.7694	  0.016000	  0.026000	  1.001000	   -0.280000	    0.240000	    0.330000	   19.105469
    3.7794	  0.034000	  0.042500	  1.002000	   -0.660000	   -0.020000	    0.110000	   19.093750
    3.7894	 -0.002500	  0.015000	  0.988500	   -0.410000	   -0.510000	    0.270000	   19.109375
    3.7995	 -0.015000	  0.044500	  1.029000	   -0.580000	   -0.220000	    0.100000	   19.109375
    3.8094	  0.013500	  0.031000	  1.029000	   -0.310000	   -0.140000	    0.270000	   19.132813
    3.8194	  0.023500	  0.045000	  1.012000	   -0.490000	    0.220000	    0.190000	   19.117188
    3.8294	  0.004500	  0.018000	  0.979000	   -0.170000	   -0.350000	    0.230000	   19.113281
    3.8396	 -0.001000	  0.044500	  1.041000	   -0.690000	   -0.150000	    0.260000	   19.117188
    3.8494	  0.013000	  0.029500	  1.016000	   -0.330000	   -0.030000	    0.300000	   19.121094
    3.8594	  0.020500	  0.043000	  0.996500	   -0.640000	    0.110000	    0.230000	   19.113281
    3.8694	  0.007500	  0.018000	  0.988000	   -0.310000	   -0.580000	    0.360000	   19.089844
    3.8794	 -0.006500	  0.045500	  1.031500	   -0.740000	   -0.270000	    0.220000	   19.085938
    3.8894	  0.003000	  0.030000	  1.009500	   -0.300000	   -0.070000	    0.290000	   19.109375
    3.8995	  0.027500	  0.040000	  1.010500	   -0.630000	    0.150000	    0.190000	   19.113281
    3.9094	  0.013000	  0.017000	  0.984000	   -0.170000	   -0.480000	    0.300000	   19.125000
    3.9196	 -0.017500	  0.048500	  1.038500	   -0.770000	   -0.440000	    0.260000	   19.109375
    3.9294	  0.010500	  0.027500	  1.026000	   -0.390000	    0.260000	    0.240000	   19.105469
    3.9394	  0.038500	  0.042000	  0.995500	   -0.460000	    0.110000	    0.110000	   19.105469
    3.9494	  0.002000	  0.017500	  0.986500	   -0.140000	   -0.480000	    0.360000	   19.109375
    3.9594	 -0.012500	  0.051000	  1.033500	   -0.680000	   -0.210000	    0.180000	   19.097656
    3.9694	  0.017500	  0.029000	  1.005500	   -0.360000	    0.000000	    0.280000	   19.113281
    3.9794	  0.022000	  0.042500	  1.014000	   -0.630000	    0.020000	    0.160000	   19.136719
    3.9895	  0.002500	  0.016000	  0.976500	   -0.220000	   -0.350000	    0.320000	   19.121094
    3.9996	 -0.005500	  0.045500	  1.028500	   -0.650000	   -0.320000	    0.150000	   19.132813
    4.0094	  0.008500	  0.027000	  1.034500	   -0.240000	    0.090000	    0.330000	   19.132813
    4.0194	  0.026500	  0.044000	  0.999500	   -0.570000	    0.200000	    0.150000	   19.117188
    4.0294	  0.005000	  0.014000	  0.983000	   -0.250000	   -0.570000	    0.280000	   19.113281
    4.0394	 -0.013500	  0.051000	  1.050500	   -0.810000	   -0.310000	    0.320000	   19.109375
    4.0494	  0.010500	  0.030500	  0.999500	   -0.240000	    0.010000	    0.320000	   19.128906
    4.0594	  0.027500	  0.043500	  1.010000	   -0.620000	   -0.050000	    0.210000	   19.136719
    4.0694	  0.006000	  0.019000	  0.984500	   -0.190000	   -0.300000	    0.360000	   19.128906
    4.0796	 -0.008000	  0.045500	  1.015000	   -0.700000	   -0.350000	    0.220000	   19.121094
    4.0895	  0.010500	  0.025000	  1.029500	   -0.170000	   -0.050000	    0.260000	   19.101563
    4.0994	  0.026000	  0.039000	  1.008000	   -0.530000	    0.190000	    0.200000	   19.113281
    4.1094	 -0.004000	  0.033000	  0.993500	   -0.280000	   -0.640000	    0.270000	   19.136719
    4.1195	 -0.009000	  0.041500	  1.053000	   -0.690000	   -0.160000	    0.230000	   19.136719
    4.1294	  0.019500	  0.033500	  1.009000	   -0.320000	    0.120000	    0.230000	   19.101563
    4.1394	  0.022500	  0.044000	  0.998000	   -0.550000	   -0.120000	    0.070000	   19.101563
    4.1494	  0.001500	  0.022000	  0.998000	   -0.230000	   -0.480000	    0.350000	   19.117188
    4.1596	  0.002500	  0.043500	  1.023500	   -0.720000	   -0.140000	    0.130000	   19.140625
    4.1694	  0.005500	  0.028500	  1.010000	   -0.160000	   -0.020000	    0.150000	   19.136719
    4.1794	  0.023000	  0.037000	  1.006500	   -0.660000	    0.130000	    0.170000	   19.089844
    4.1895	  0.016500	  0.020500	  0.983500	   -0.350000	   -0.460000	    0.270000	   19.101563
    4.1994	 -0.018000	  0.046000	  1.040000	   -0.680000	   -0.500000	    0.230000	   19.148438
    4.2094	  0.002000	  0.034500	  1.030500	   -0.330000	    0.110000	    0.230000	   19.121094
    4.2194	  0.037000	  0.039500	  1.000000	   -0.540000	    0.250000	    0.140000	   19.121094
    4.2294	  0.003000	  0.020500	  0.983500	   -0.110000	   -0.640000	    0.220000	   19.097656
    4.2397	 -0.015000	  0.047000	  1.037000	   -0.720000	   -0.190000	    0.260000	   19.093750
    4.2494	  0.026000	  0.024000	  1.003000	   -0.260000	   -0.050000	    0.240000	   19.109375
    4.2594	  0.026500	  0.040000	  1.001500	   -0.480000	   -0.040000	    0.180000	   19.128906
    4.2694	 -0.008500	  0.017000	  0.984000	   -0.270000	   -0.510000	    0.310000	   19.093750
    4.2794	 -0.008000	  0.044500	  1.034500	   -0.690000	   -0.230000	    0.200000	   19.128906
    4.2895	  0.012000	  0.032000	  1.030000	   -0.180000	   -0.080000	    0.220000	   19.132813
    4.2994	  0.017500	  0.043500	  1.007000	   -0.610000	    0.270000	    0.180000	   19.121094
    4.3094	  0.009500	  0.019000	  0.978500	   -0.130000	   -0.410000	    0.390000	   19.113281
    4.3197	  0.002000	  0.043500	  1.041500	   -0.720000	   -0.450000	    0.160000	   19.121094
    4.3294	  0.011000	  0.031000	  1.010000	   -0.160000	    0.050000	    0.350000	   19.109375
    4.3394	  0.023000	  0.040000	  0.998000	   -0.610000	    0.000000	    0.210000	   19.101563
    4.3495	  0.008500	  0.019500	  0.989500	   -0.320000	   -0.510000	    0.350000	   19.121094
    4.3594	 -0.008500	  0.044000	  1.030500	   -0.680000	   -0.480000	    0.200000	   19.105469
    4.3695	  0.008000	  0.033500	  1.018500	   -0.180000	    0.000000	    0.290000	   19.097656
    4.3794	  0.029000	  0.038000	  1.007000	   -0.550000	    0.120000	    0.170000	   19.105469
    4.3895	  0.004500	  0.022500	  0.991000	   -0.260000	   -0.520000	    0.320000	   19.097656
    4.3997	 -0.011500	  0.041500	  1.042000	   -0.740000	   -0.260000	    0.120000	   19.097656
    4.4095	  0.017000	  0.030000	  1.013500	   -0.330000	    0.020000	    0.350000	   19.117188
    4.4194	  0.028500	  0.039500	  0.997000	   -0.540000	    0.110000	    0.180000	   19.117188
    4.4295	  0.001500	  0.020500	  0.989000	   -0.240000	   -0.470000	    0.360000	   19.105469
    4.4394	 -0.009000	  0.046500	  1.031000	   -0.780000	   -0.290000	    0.140000	   19.082031
    4.4498	  0.009500	  0.031000	  1.014000	   -0.320000	   -0.200000	    0.270000	   19.097656
    4.4594	  0.023000	  0.036000	  1.010000	   -0.640000	    0.110000	    0.160000	   19.113281
    4.4695	  0.008000	  0.017000	  0.979000	   -0.230000	   -0.480000	    0.350000	   19.136719
    4.4797	 -0.013500	  0.044000	  1.038500	   -0.690000	   -0.490000	    0.190000	   19.164063
    4.4895	  0.011000	  0.028000	  1.034500	   -0.440000	    0.110000	    0.310000	   19.140625
    4.4995	  0.036000	  0.041000	  0.994000	   -0.560000	    0.210000	    0.260000	   19.117188
    4.5095	 -0.000500	  0.016000	  0.986500	   -0.220000	   -0.530000	    0.410000	   19.125000
    4.5195	 -0.018500	  0.051500	  1.044500	   -0.800000	   -0.170000	    0.290000	   19.097656
    4.5295	  0.018000	  0.030000	  1.003000	   -0.330000	   -0.010000	    0.290000	   19.082031
    4.5395	  0.028000	  0.044500	  1.012500	   -0.540000	    0.020000	    0.170000	   19.105469
    4.5495	  0.001500	  0.018000	  0.977500	   -0.170000	   -0.380000	    0.250000	   19.117188
    4.5597	 -0.003000	  0.046000	  1.022000	   -0.640000	   -0.300000	    0.200000	   19.125000
    4.5695	  0.014500	  0.024500	  1.034500	   -0.360000	   -0.140000	    0.300000	   19.109375
    4.5795	  0.020000	  0.044000	  1.007000	   -0.570000	    0.200000	    0.300000	   19.109375
    4.5895	  0.005500	  0.017000	  0.978000	   -0.090000	   -0.590000	    0.280000	   19.113281
    4.5995	 -0.007000	  0.047000	  1.051500	   -0.860000	   -0.300000	    0.200000	   19.125000
    4.6095	  0.011500	  0.032000	  1.004500	   -0.400000	    0.100000	    0.230000	   19.128906
    4.6195	  0.026000	  0.046000	  1.001000	   -0.610000	    0.010000	    0.100000	   19.121094
    4.6295	  0.007500	  0.019000	  0.993500	   -0.290000	   -0.450000	    0.340000	   19.121094
    4.6397	 -0.008500	  0.048000	  1.019500	   -0.660000	   -0.350000	    0.300000	   19.109375
    4.6495	  0.005000	  0.025500	  1.019000	   -0.270000	   -0.010000	    0.160000	   19.105469
    4.6595	  0.032500	  0.038500	  1.009500	   -0.550000	    0.210000	    0.210000	   19.101563
    4.6695	  0.010500	  0.018500	  0.976000	   -0.250000	   -0.470000	    0.400000	   19.093750
    4.6795	 -0.021500	  0.047500	  1.048000	   -0.760000	   -0.380000	    0.320000	   19.121094
    4.6895	  0.014500	  0.031000	  1.022000	   -0.460000	    0.310000	    0.250000	   19.125000
    4.6995	  0.035000	  0.045000	  1.000000	   -0.560000	    0.070000	    0.150000	   19.125000
    4.7095	 -0.003500	  0.017000	  0.986500	   -0.140000	   -0.470000	    0.270000	   19.136719
    4.7197	 -0.008500	  0.049000	  1.030000	   -0.660000	   -0.190000	    0.300000	   19.097656
    4.7296	  0.020500	  0.023000	  1.008000	   -0.340000	    0.010000	    0.260000	   19.121094
    4.7395	  0.006500	  0.008500	  0.972500	   -0.490000	   -0.440000	    0.180000	   19.117188
    4.7495	  0.001500	  0.014000	  0.977500	   -0.400000	   -0.510000	    0.290000	   19.117188
    4.7595	 -0.012000	  0.048000	  1.040000	   -0.700000	   -0.360000	    0.430000	   19.121094
    4.7695	  0.004500	  0.030500	  1.034500	   -0.430000	   -0.030000	    0.360000	   19.136719
    4.7795	  0.028000	  0.046500	  1.004000	   -0.600000	    0.230000	    0.130000	   19.132813
    4.7895	  0.013000	  0.015000	  0.977500	   -0.020000	   -0.370000	    0.180000	   19.128906
    4.7997	 -0.008000	  0.049500	  1.035500	   -0.620000	   -0.230000	    0.230000	   19.136719
    4.8095	  0.013500	  0.026500	  1.008500	   -0.340000	   -0.040000	    0.230000	   19.117188
    4.8195	  0.028500	  0.043500	  1.007500	   -0.590000	    0.050000	    0.160000	   19.144531
    4.8295	  0.001500	  0.017000	  0.982000	   -0.240000	   -0.450000	    0.310000	   19.132813
    4.8395	 -0.013000	  0.046000	  1.031500	   -0.590000	   -0.350000	    0.250000	   19.125000
    4.8495	  0.010000	  0.029000	  1.024000	   -0.320000	   -0.010000	    0.300000	   19.121094
    4.8595	  0.023500	  0.043500	  1.010000	   -0.620000	    0.120000	    0.240000	   19.128906
    4.8695	  0.004000	  0.017500	  0.988500	   -0.220000	   -0.350000	    0.250000	   19.136719
    4.8797	 -0.005000	  0.045500	  1.035000	   -0.580000	   -0.310000	    0.370000	   19.136719
    4.8895	  0.010000	  0.027000	  1.013500	   -0.280000	    0.070000	    0.100000	   19.128906
    4.8995	  0.024000	  0.044000	  1.002500	   -0.460000	    0.210000	    0.080000	   19.117188
    4.9095	  0.014000	  0.018000	  0.981500	   -0.320000	   -0.360000	    0.270000	   19.148438
    4.9195	 -0.010000	  0.047500	  1.031500	   -0.730000	   -0.370000	    0.300000	   19.144531
    4.9295	  0.002000	  0.027000	  1.014000	   -0.500000	   -0.050000	    0.260000	   19.117188
    4.9395	  0.029500	  0.043000	  1.010500	   -0.580000	    0.150000	    0.190000	   19.109375
    4.9495	  0.011500	  0.014500	  0.982500	   -0.280000	   -0.600000	    0.370000	   19.128906
    4.9597	 -0.021500	  0.047500	  1.040500	   -0.780000	   -0.290000	    0.280000	   19.136719
    4.9695	  0.011500	  0.026000	  1.021500	   -0.470000	    0.110000	    0.260000	   19.089844
    4.9795	  0.039500	  0.042000	  0.997000	   -0.570000	    0.160000	    0.200000	   19.097656
    4.9895	 -0.003000	  0.016000	  0.989000	   -0.180000	   -0.580000	    0.310000	   19.140625
    4.9995	 -0.016500	  0.050000	  1.032500	   -0.640000	   -0.220000	    0.240000	   19.144531
    5.0095	  0.019500	  0.027500	  1.010000	   -0.420000	   -0.050000	    0.320000	   19.128906
    5.0195	  0.024000	  0.045000	  1.014500	   -0.450000	   -0.050000	    0.360000	   19.140625
    5.0295	  0.004500	  0.015000	  0.972500	   -0.270000	   -0.390000	    0.260000	   19.128906
    5.0397	 -0.003000	  0.047500	  1.027000	   -0.630000	   -0.330000	    0.280000	   19.109375
    5.0495	  0.006500	  0.025000	  1.038500	   -0.390000	   -0.130000	    0.360000	   19.125000
    5.0595	  0.023000	  0.046000	  1.005500	   -0.590000	    0.190000	    0.240000	   19.144531
    5.0695	  0.011000	  0.014000	  0.978500	   -0.320000	   -0.550000	    0.280000	   19.128906
    5.0795	 -0.009500	  0.049500	  1.048000	   -0.590000	   -0.350000	    0.270000	   19.101563
    5.0895	  0.010500	  0.027000	  0.998500	   -0.380000	    0.170000	    0.220000	   19.121094
    5.0995	  0.028000	  0.048000	  1.008500	   -0.630000	   -0.180000	    0.190000	   19.132813
    5.1095	 -0.002000	  0.027000	  0.999500	   -0.230000	   -0.460000	    0.420000	   19.121094
    5.1197	 -0.008500	  0.046500	  1.019000	   -0.690000	   -0.290000	    0.200000	   19.113281
    5.1295	  0.010500	  0.022500	  1.022000	   -0.260000	   -0.080000	    0.250000	   19.144531
    5.1395	  0.028500	  0.042000	  1.014000	   -0.600000	    0.100000	    0.190000	   19.136719
    5.1495	  0.008500	  0.015500	  0.978000	   -0.280000	   -0.480000	    0.320000	   19.132813
    5.1595	 -0.010500	  0.046000	  1.050000	   -0.740000	   -0.210000	    0.240000	   19.132813
    5.1695	  0.014000	  0.029000	  1.015000	   -0.360000	    0.070000	    0.340000	   19.121094
    5.1795	  0.023500	  0.046000	  1.003500	   -0.640000	   -0.170000	    0.190000	   19.113281
    5.1895	  0.003000	  0.018500	  0.990000	   -0.200000	   -0.430000	    0.340000	   19.140625
    5.1997	 -0.003000	  0.047000	  1.028000	   -0.730000	   -0.350000	    0.260000	   19.132813
    5.2095	  0.010500	  0.024000	  1.010000	   -0.340000	   -0.050000	    0.230000	   19.113281
    5.2195	  0.027000	  0.040500	  1.003500	   -0.660000	    0.010000	    0.150000	   19.109375
    5.2295	  0.009000	  0.016000	  0.986000	   -0.110000	   -0.430000	    0.260000	   19.109375
    5.2395	 -0.020000	  0.047000	  1.041000	   -0.700000	   -0.380000	    0.100000	   19.121094
    5.2495	  0.006000	  0.032000	  1.031000	   -0.290000	    0.170000	    0.220000	   19.097656
    5.2595	  0.036000	  0.043000	  1.002500	   -0.530000	    0.140000	    0.190000	   19.128906
    5.2695	  0.006500	  0.018500	  0.980500	   -0.330000	   -0.520000	    0.390000	   19.117188
    5.2797	 -0.010000	  0.049000	  1.030000	   -0.610000	   -0.120000	    0.260000	   19.132813
    5.2895	  0.019500	  0.025000	  1.010000	   -0.270000	   -0.080000	    0.250000	   19.109375
    5.2995	  0.021500	  0.043000	  1.007000	   -0.440000	    0.000000	    0.210000	   19.105469
    5.3095	 -0.003000	  0.016000	  0.978500	   -0.440000	   -0.350000	    0.240000	   19.113281
    5.3195	 -0.003000	  0.046500	  1.036500	   -0.560000	   -0.400000	    0.190000	   19.113281
    5.3295	  0.012500	  0.029000	  1.027500	   -0.350000	    0.010000	    0.250000	   19.101563
    5.3395	  0.016000	  0.045500	  1.003500	   -0.540000	    0.090000	    0.110000	   19.105469
    5.3495	  0.007500	  0.017000	  0.990500	   -0.340000	   -0.400000	    0.280000	   19.125000
    5.3597	  0.001500	  0.046000	  1.039000	   -0.720000	   -0.240000	    0.200000	   19.132813
    5.3695	  0.007000	  0.029500	  1.005500	   -0.280000	    0.110000	    0.300000	   19.121094
    5.3795	  0.023500	  0.042500	  1.003000	   -0.520000	    0.150000	    0.220000	   19.101563
    5.3895	  0.017500	  0.017000	  0.984500	   -0.280000	   -0.390000	    0.320000	   19.113281
    5.3995	 -0.010500	  0.047500	  1.025500	   -0.720000	   -0.400000	    0.240000	   19.125000
    5.4095	  0.001000	  0.027000	  1.021000	   -0.370000	   -0.120000	    0.250000	   19.105469
    5.4195	  0.032000	  0.044500	  1.011500	   -0.580000	    0.170000	    0.140000	   19.109375
    5.4295	  0.007000	  0.016000	  0.980500	   -0.320000	   -0.460000	    0.400000	   19.113281
    5.4397	 -0.019000	  0.046000	  1.046000	   -0.720000	   -0.160000	    0.230000	   19.113281
    5.4499	  0.022000	  0.024000	  1.015500	   -0.370000	    0.330000	    0.240000	   19.105469
    5.4595	  0.033500	  0.040500	  0.993000	   -0.610000	    0.010000	    0.070000	   19.101563
    5.4695	 -0.007000	  0.015500	  0.989500	   -0.380000	   -0.540000	    0.260000	   19.105469
    5.4795	 -0.012500	  0.049500	  1.032000	   -0.680000	   -0.160000	    0.170000	   19.121094
    5.4895	  0.012000	  0.028000	  1.013000	   -0.290000	   -0.110000	    0.260000	   19.117188
    5.4996	  0.020500	  0.041500	  1.013000	   -0.590000	    0.120000	    0.150000	   19.117188
    5.5095	  0.009500	  0.016500	  0.974000	   -0.210000	   -0.300000	    0.280000	   19.113281
    5.5197	 -0.007000	  0.047500	  1.031000	   -0.650000	   -0.450000	    0.210000	   19.117188
    5.5295	  0.006000	  0.026500	  1.038000	   -0.340000	    0.030000	    0.210000	   19.113281
    5.5395	  0.031000	  0.042500	  0.999000	   -0.500000	    0.300000	    0.160000	   19.128906
    5.5495	  0.006000	  0.016500	  0.980000	   -0.270000	   -0.530000	    0.340000	   19.117188
    5.5595	 -0.012000	  0.050500	  1.041000	   -0.580000	   -0.380000	    0.230000	   19.121094
    5.5695	  0.020000	  0.028000	  1.002500	   -0.510000	    0.000000	    0.270000	   19.113281
    5.5795	  0.026000	  0.045000	  1.010500	   -0.570000	   -0.080000	    0.120000	   19.121094
    5.5895	 -0.001500	  0.015500	  0.981000	   -0.280000	   -0.350000	    0.330000	   19.121094
    5.5998	 -0.004000	  0.047500	  1.025500	   -0.630000	   -0.350000	    0.280000	   19.121094
    5.6095	  0.012000	  0.021500	  1.029000	   -0.300000	   -0.160000	    0.250000	   19.117188
    5.6195	  0.020000	  0.047500	  1.011500	   -0.440000	    0.330000	    0.050000	   19.113281
    5.6295	  0.009000	  0.013000	  0.976000	   -0.250000	   -0.520000	    0.250000	   19.121094
    5.6395	 -0.005000	  0.049000	  1.048500	   -0.800000	   -0.300000	    0.210000	   19.140625
    5.6495	  0.007000	  0.029000	  1.005500	   -0.290000	    0.100000	    0.280000	   19.164063
    5.6595	  0.023000	  0.047000	  1.006000	   -0.640000	    0.040000	    0.100000	   19.136719
    5.6695	  0.009500	  0.016500	  0.990000	   -0.140000	   -0.370000	    0.470000	   19.132813
    5.6797	 -0.010000	  0.048500	  1.022500	   -0.710000	   -0.320000	    0.160000	   19.132813
    5.6896	  0.005500	  0.021500	  1.015000	   -0.360000	    0.000000	    0.250000	   19.105469
    5.6995	  0.033500	  0.039500	  1.006000	   -0.580000	    0.200000	    0.140000	   19.121094
    5.7095	  0.004500	  0.016000	  0.986500	   -0.250000	   -0.660000	    0.250000	   19.128906
    5.7195	 -0.026500	  0.047000	  1.046000	   -0.690000	   -0.260000	    0.280000	   19.113281
    5.7295	  0.014000	  0.030500	  1.022000	   -0.370000	    0.230000	    0.220000	   19.121094
    5.7395	  0.035000	  0.046000	  1.000000	   -0.520000	    0.140000	    0.120000	   19.136719
    5.7495	 -0.002000	  0.020500	  0.983500	   -0.270000	   -0.530000	    0.320000	   19.121094
    5.7597	 -0.003000	  0.047000	  1.023500	   -0.670000	   -0.280000	    0.200000	   19.113281
    5.7695	  0.018000	  0.024000	  1.014000	   -0.360000	   -0.120000	    0.290000	   19.148438
    5.7795	  0.017500	  0.042500	  1.009000	   -0.550000	   -0.030000	    0.160000	   19.117188
    5.7895	  0.006500	  0.016000	  0.973500	   -0.300000	   -0.450000	    0.370000	   19.109375
    5.7996	 -0.003500	  0.045000	  1.044500	   -0.700000	   -0.330000	    0.110000	   19.125000
    5.8095	  0.005500	  0.032000	  1.030000	   -0.180000	    0.000000	    0.350000	   19.144531
    5.8196	  0.024500	  0.045500	  0.998500	   -0.540000	    0.380000	    0.200000	   19.152344
    5.8295	 -0.005500	  0.050000	  1.029000	   -0.500000	   -0.340000	    0.340000	   19.105469
    5.8398	 -0.006500	  0.046000	  1.034000	   -0.680000	   -0.200000	    0.270000	   19.105469
    5.8495	  0.010500	  0.028500	  1.000000	   -0.280000	   -0.050000	    0.270000	   19.132813
    5.8595	  0.024500	  0.040500	  1.009000	   -0.710000	   -0.010000	    0.150000	   19.121094
    5.8695	  0.008500	  0.017000	  0.981500	   -0.270000	   -0.370000	    0.280000	   19.121094
    5.8795	 -0.007000	  0.045000	  1.027000	   -0.660000	   -0.350000	    0.210000	   19.121094
    5.8895	  0.008000	  0.029500	  1.029000	   -0.280000	   -0.130000	    0.270000	   19.113281
    5.8996	  0.021500	  0.046000	  1.010000	   -0.680000	    0.110000	    0.170000	   19.117188
    5.9095	  0.006500	  0.017000	  0.984000	   -0.350000	   -0.460000	    0.290000	   19.121094
    5.9197	 -0.004500	  0.043500	  1.045000	   -0.740000	   -0.090000	    0.120000	   19.140625
    5.9295	  0.015500	  0.027000	  1.005000	   -0.320000	   -0.010000	    0.320000	   19.121094
    5.9395	  0.026000	  0.043000	  0.995500	   -0.550000	    0.030000	    0.140000	   19.125000
    5.9495	  0.004500	  0.016500	  0.996500	   -0.240000	   -0.460000	    0.240000	   19.128906
    5.9595	 -0.011000	  0.045500	  1.029000	   -0.760000	   -0.310000	    0.130000	   19.140625
    5.9695	  0.003000	  0.029500	  1.012000	   -0.250000	    0.010000	    0.260000	   19.132813
    5.9795	  0.029500	  0.039500	  1.012500	   -0.530000	    0.200000	    0.200000	   19.121094
    5.9896	  0.013000	  0.018000	  0.979500	   -0.220000	   -0.470000	    0.400000	   19.136719
    5.9998	 -0.012500	  0.044500	  1.036000	   -0.780000	   -0.350000	    0.160000	   19.144531
    6.0095	  0.013500	  0.028500	  1.031000	   -0.220000	    0.080000	    0.330000	   19.156250
    6.0195	  0.032000	  0.040000	  0.995500	   -0.510000	    0.110000	    0.170000	   19.136719
    6.0295	 -0.003000	  0.020500	  0.986500	   -0.360000	   -0.580000	    0.340000	   19.117188
    6.0395	 -0.009500	  0.048000	  1.040000	   -0.710000	   -0.170000	    0.300000	   19.140625
    6.0495	  0.019000	  0.029500	  1.004500	   -0.210000	    0.110000	    0.150000	   19.136719
    6.0595	  0.018500	  0.043500	  1.009000	   -0.520000	    0.060000	    0.150000	   19.156250
    6.0695	  0.003000	  0.016000	  0.985500	   -0.330000	   -0.360000	    0.350000	   19.152344
    6.0798	  0.000500	  0.046000	  1.028000	   -0.570000	   -0.290000	    0.170000	   19.140625
    6.0896	  0.005000	  0.028500	  1.032500	   -0.320000	   -0.080000	    0.290000	   19.113281
    6.0995	  0.023000	  0.044500	  1.004000	   -0.640000	    0.260000	    0.210000	   19.109375
    6.1095	  0.010000	  0.027500	  0.992500	   -0.290000	   -0.600000	    0.380000	   19.136719
    6.1196	 -0.007500	  0.046500	  1.046500	   -0.680000	   -0.160000	    0.070000	   19.121094
    6.1295	  0.007000	  0.032500	  1.001000	   -0.300000	    0.000000	    0.260000	   19.101563
    6.1395	  0.025500	  0.044500	  1.010000	   -0.600000	    0.040000	    0.120000	   19.125000
    6.1495	  0.004500	  0.017500	  0.988500	   -0.150000	   -0.400000	    0.380000	   19.148438
    6.1598	 -0.012500	  0.044500	  1.022000	   -0.730000	   -0.270000	    0.050000	   19.164063
    6.1695	  0.013500	  0.025500	  1.019000	   -0.310000	    0.080000	    0.230000	   19.136719
    6.1796	  0.031500	  0.037000	  1.003000	   -0.610000	    0.010000	    0.100000	   19.136719
    6.1896	 -0.004500	  0.020500	  0.989000	   -0.250000	   -0.620000	    0.270000	   19.132813
    6.1996	 -0.017000	  0.044500	  1.049000	   -0.720000	   -0.070000	    0.190000	   19.121094
    6.2096	  0.018500	  0.034000	  1.012500	   -0.270000	    0.080000	    0.410000	   19.125000
    6.2196	  0.025500	  0.040500	  0.999500	   -0.520000	    0.080000	    0.190000	   19.128906
    6.2295	  0.005500	  0.022500	  0.987000	   -0.210000	   -0.320000	    0.320000	   19.144531
    6.2398	  0.001500	  0.044000	  1.021000	   -0.700000	   -0.370000	    0.180000	   19.152344
    6.2496	  0.009000	  0.029500	  1.015500	   -0.200000	   -0.090000	    0.230000	   19.121094
    6.2596	  0.021000	  0.036500	  1.005000	   -0.560000	    0.210000	    0.140000	   19.136719
    6.2696	  0.008500	  0.020500	  0.982500	   -0.260000	   -0.480000	    0.350000	   19.125000
    6.2796	 -0.014500	  0.042500	  1.045500	   -0.640000	   -0.470000	    0.270000	   19.105469
    6.2896	  0.010500	  0.036500	  1.027500	   -0.280000	    0.090000	    0.210000	   19.093750
    6.2996	  0.032500	  0.040500	  0.996000	   -0.610000	    0.170000	    0.190000	   19.117188
    6.3096	  0.000500	  0.021500	  0.989500	   -0.300000	   -0.540000	    0.390000	   19.117188
    6.3198	 -0.008500	  0.046500	  1.035000	   -0.650000	   -0.160000	    0.230000	   19.132813
    6.3296	  0.019000	  0.027500	  1.003000	   -0.270000	   -0.030000	    0.270000	   19.140625
    6.3396	  0.022000	  0.040500	  1.008000	   -0.550000	   -0.050000	    0.130000	   19.117188
    6.3496	  0.003500	  0.016500	  0.980000	   -0.230000	   -0.390000	    0.270000	   19.109375
    6.3596	 -0.003000	  0.044500	  1.029500	   -0.660000	   -0.350000	    0.330000	   19.132813
    6.3696	  0.005500	  0.031500	  1.032000	   -0.380000	   -0.220000	    0.170000	   19.148438
    6.3796	  0.021000	  0.045000	  1.007500	   -0.520000	    0.190000	    0.070000	   19.136719
    6.3896	  0.009500	  0.017500	  0.980000	   -0.170000	   -0.410000	    0.370000	   19.144531
    6.3998	 -0.008500	  0.044000	  1.045500	   -0.700000	   -0.260000	    0.260000	   19.136719
    6.4096	  0.014500	  0.029000	  1.000500	   -0.200000	    0.270000	    0.340000	   19.117188
    6.4196	  0.031500	  0.040000	  0.996000	   -0.550000	    0.060000	    0.200000	   19.121094
    6.4296	  0.001500	  0.016500	  0.994000	   -0.240000	   -0.570000	    0.310000	   19.125000
    6.4396	 -0.015500	  0.045000	  1.027500	   -0.790000	   -0.160000	    0.230000	   19.144531
    6.4499	  0.010500	  0.031000	  1.019500	   -0.360000	    0.010000	    0.360000	   19.156250
    6.4596	  0.029500	  0.039000	  1.014000	   -0.480000	    0.180000	    0.180000	   19.136719
    6.4696	  0.006000	  0.019000	  0.977500	   -0.250000	   -0.380000	    0.430000	   19.121094
    6.4798	 -0.010500	  0.042500	  1.040500	   -0.730000	   -0.360000	    0.190000	   19.121094
    6.4896	  0.018500	  0.029500	  1.023000	   -0.240000	    0.040000	    0.270000	   19.125000
    6.4996	  0.025000	  0.039500	  0.992500	   -0.560000	    0.170000	    0.160000	   19.128906
    6.5096	 -0.003500	  0.020500	  0.990000	   -0.240000	   -0.540000	    0.330000	   19.136719
    6.5196	 -0.005500	  0.045000	  1.035500	   -0.560000	   -0.160000	    0.230000	   19.148438
    6.5296	  0.011500	  0.031500	  1.006000	   -0.330000	   -0.070000	    0.340000	   19.156250
    6.5396	  0.019500	  0.041500	  1.010000	   -0.550000	    0.050000	    0.260000	   19.140625
    6.5496	  0.012000	  0.016000	  0.982500	   -0.130000	   -0.320000	    0.290000	   19.136719
    6.5598	 -0.008500	  0.046000	  1.035500	   -0.560000	   -0.380000	    0.090000	   19.132813
    6.5696	  0.004000	  0.030000	  1.030000	   -0.200000	    0.070000	    0.210000	   19.156250
    6.5796	  0.036000	  0.041000	  0.997000	   -0.560000	    0.230000	    0.150000	   19.156250
    6.5896	  0.009000	  0.016500	  0.984000	   -0.320000	   -0.630000	    0.360000	   19.140625
    6.5996	 -0.016500	  0.051000	  1.039000	   -0.770000	   -0.190000	    0.260000	   19.105469
    6.6096	  0.015000	  0.030000	  1.003500	   -0.490000	   -0.060000	    0.370000	   19.113281
    6.6196	  0.029500	  0.042000	  1.013500	   -0.640000	    0.030000	    0.120000	   19.136719
    6.6296	  0.000000	  0.015000	  0.980500	   -0.220000	   -0.290000	    0.240000	   19.117188
    6.6398	 -0.010500	  0.045000	  1.024500	   -0.670000	   -0.390000	    0.210000	   19.156250
    6.6496	  0.015500	  0.025500	  1.029500	   -0.380000	    0.000000	    0.280000	   19.152344
    6.6596	  0.026500	  0.042500	  1.003000	   -0.600000	    0.220000	    0.080000	   19.128906
    6.6696	  0.000000	  0.015500	  0.985500	   -0.300000	   -0.700000	    0.430000	   19.140625
    6.6796	 -0.012000	  0.046500	  1.050500	   -0.720000	   -0.220000	    0.230000	   19.164063
    6.6897	  0.014000	  0.032500	  1.006500	   -0.210000	    0.140000	    0.270000	   19.148438
    6.6996	  0.011500	  0.014000	  0.980000	   -0.290000	   -0.270000	    0.330000	   19.144531
    6.7096	  0.007500	  0.021500	  0.986000	   -0.240000	   -0.300000	    0.410000	   19.144531
    6.7198	 -0.006500	  0.044500	  1.019000	   -0.720000	   -0.320000	    0.200000	   19.144531
    6.7296	  0.007500	  0.027000	  1.024000	   -0.390000	    0.040000	    0.280000	   19.109375
    6.7396	  0.027500	  0.037000	  1.003500	   -0.530000	    0.060000	    0.180000	   19.128906
    6.7496	  0.005000	  0.020500	  0.983500	   -0.370000	   -0.490000	    0.390000	   19.140625
    6.7596	 -0.017500	  0.044500	  1.047000	   -0.670000	   -0.390000	    0.270000	   19.125000
    6.7696	  0.014500	  0.035000	  1.023500	   -0.270000	    0.310000	    0.190000	   19.125000
    6.7796	  0.031500	  0.043000	  0.997000	   -0.510000	    0.120000	    0.090000	   19.148438
    6.7896	 -0.001000	  0.021000	  0.991000	   -0.180000	   -0.490000	    0.280000	   19.148438
    6.7998	 -0.005000	  0.047000	  1.029000	   -0.790000	   -0.280000	    0.220000	   19.132813
    6.8096	  0.016000	  0.025000	  1.007500	   -0.340000	   -0.040000	    0.310000	   19.132813
    6.8196	  0.021500	  0.040000	  1.008500	   -0.530000	   -0.030000	    0.130000	   19.140625
    6.8296	  0.009500	  0.015000	  0.978000	   -0.200000	   -0.390000	    0.380000	   19.132813
    6.8396	 -0.008000	  0.047000	  1.035500	   -0.670000	   -0.360000	    0.230000	   19.125000
    6.8496	  0.002000	  0.032500	  1.034500	   -0.240000	   -0.050000	    0.260000	   19.132813
    6.8596	  0.028500	  0.046500	  1.008000	   -0.580000	    0.200000	    0.200000	   19.128906
    6.8696	  0.010500	  0.017000	  0.980500	   -0.230000	   -0.390000	    0.310000	   19.140625
    6.8798	 -0.011500	  0.049000	  1.040500	   -0.610000	   -0.170000	    0.210000	   19.125000
    6.8896	  0.017500	  0.025000	  1.000000	   -0.260000	    0.080000	    0.340000	   19.113281
    6.8996	  0.032500	  0.044000	  1.003500	   -0.570000	    0.080000	    0.060000	   19.128906
    6.9096	 -0.005000	  0.016500	  0.988000	   -0.390000	   -0.330000	    0.210000	   19.140625
    6.9196	 -0.013000	  0.045000	  1.027500	   -0.830000	   -0.370000	    0.220000	   19.128906
    6.9296	  0.013500	  0.029000	  1.026000	   -0.240000	   -0.080000	    0.290000	   19.113281
    6.9396	  0.022500	  0.042500	  1.012500	   -0.760000	    0.150000	    0.260000	   19.113281
    6.9496	  0.006000	  0.019500	  0.977000	   -0.240000	   -0.380000	    0.320000	   19.117188
    6.9598	 -0.001000	  0.042500	  1.040500	   -0.710000	   -0.210000	    0.270000	   19.128906
    6.9696	  0.014000	  0.030000	  1.015500	   -0.100000	    0.080000	    0.320000	   19.136719
    6.9796	  0.021500	  0.040500	  0.992500	   -0.620000	   -0.070000	    0.050000	   19.152344
    6.9896	  0.006500	  0.022000	  0.994000	   -0.460000	   -0.420000	    0.340000	   19.132813
    6.9996	 -0.005500	  0.045000	  1.031500	   -0.780000	   -0.250000	    0.210000	   19.125000
    7.0096	  0.004500	  0.030000	  1.007000	   -0.320000	   -0.120000	    0.350000	   19.121094
    7.0196	  0.024500	  0.041000	  1.013000	   -0.640000	    0.050000	    0.160000	   19.109375
    7.0296	  0.012000	  0.019500	  0.986500	   -0.350000	   -0.380000	    0.340000	   19.113281
    7.0398	 -0.015000	  0.046500	  1.038000	   -0.640000	   -0.420000	    0.120000	   19.140625
    7.0496	  0.009000	  0.028000	  1.024000	   -0.190000	    0.180000	    0.300000	   19.144531
    7.0596	  0.037000	  0.038500	  0.993500	   -0.540000	    0.190000	    0.110000	   19.125000
    7.0696	  0.001000	  0.020000	  0.988000	   -0.310000	   -0.690000	    0.350000	   19.128906
    7.0796	 -0.013500	  0.049500	  1.035500	   -0.760000	   -0.140000	    0.260000	   19.132813
    7.0896	  0.017000	  0.030000	  1.005500	   -0.370000	    0.010000	    0.240000	   19.136719
    7.0996	  0.022500	  0.041000	  1.016000	   -0.660000	    0.130000	    0.200000	   19.164063
    7.1096	 -0.001500	  0.028000	  0.988500	   -0.220000	   -0.300000	    0.430000	   19.136719
    7.1198	 -0.006000	  0.044500	  1.030000	   -0.690000	   -0.480000	    0.190000	   19.136719
    7.1296	  0.010500	  0.024000	  1.032000	   -0.270000	    0.080000	    0.310000	   19.136719
    7.1396	  0.028000	  0.043500	  0.998500	   -0.490000	    0.180000	    0.220000	   19.136719
    7.1496	  0.002000	  0.016500	  0.984500	   -0.400000	   -0.670000	    0.280000	   19.148438
    7.1596	 -0.012500	  0.049500	  1.048500	   -0.600000	   -0.160000	    0.210000	   19.128906
    7.1696	  0.013500	  0.031000	  1.002000	   -0.270000	    0.110000	    0.280000	   19.148438
    7.1796	  0.027000	  0.044000	  1.009000	   -0.570000	   -0.040000	    0.190000	   19.140625
    7.1896	  0.007000	  0.019000	  0.981500	   -0.270000	   -0.440000	    0.340000	   19.132813
    7.1998	 -0.005000	  0.045500	  1.019000	   -0.810000	   -0.430000	    0.210000	   19.148438
    7.2096	  0.012000	  0.026500	  1.028500	   -0.310000	    0.010000	    0.170000	   19.152344
    7.2196	  0.024500	  0.039500	  1.007500	   -0.520000	    0.170000	    0.160000	   19.148438
    7.2296	  0.001500	  0.022500	  0.982500	   -0.090000	   -0.400000	    0.290000	   19.152344
    7.2396	 -0.010500	  0.043000	  1.052000	   -0.790000	   -0.330000	    0.240000	   19.148438
    7.2496	  0.018500	  0.032000	  1.010000	   -0.350000	    0.150000	    0.300000	   19.140625
    7.2596	  0.021000	  0.045000	  0.995000	   -0.620000	   -0.110000	    0.160000	   19.125000
    7.2696	 -0.001500	  0.021500	  0.997000	   -0.220000	   -0.440000	    0.260000	   19.121094
    7.2798	  0.000000	  0.042500	  1.025500	   -0.810000	   -0.260000	    0.300000	   19.125000
    7.2897	  0.006500	  0.028000	  1.008000	   -0.180000	   -0.080000	    0.300000	   19.117188
    7.2996	  0.022500	  0.035500	  1.004500	   -0.640000	    0.190000	    0.140000	   19.121094
    7.3096	  0.015000	  0.020000	  0.983000	   -0.370000	   -0.500000	    0.260000	   19.136719
    7.3196	 -0.015000	  0.044000	  1.041000	   -0.750000	   -0.420000	    0.180000	   19.152344
    7.3296	  0.005500	  0.034500	  1.028500	   -0.230000	    0.060000	    0.240000	   19.164063
    7.3396	  0.037000	  0.039500	  1.001000	   -0.630000	    0.110000	    0.320000	   19.140625
    7.3496	  0.002500	  0.022000	  0.983000	   -0.150000	   -0.400000	    0.420000	   19.128906
    7.3598	 -0.014500	  0.046500	  1.039500	   -0.800000	   -0.280000	    0.280000	   19.136719
    7.3696	  0.023500	  0.025000	  1.002000	   -0.310000	    0.230000	    0.230000	   19.132813
    7.3796	  0.025500	  0.040000	  1.002500	   -0.540000	   -0.270000	    0.130000	   19.136719
    7.3896	 -0.009500	  0.016500	  0.984500	   -0.220000	   -0.340000	    0.310000	   19.136719
    7.3996	 -0.007500	  0.043500	  1.034000	   -0.840000	   -0.330000	    0.320000	   19.148438
    7.4096	  0.012500	  0.031000	  1.031000	   -0.280000	   -0.090000	    0.180000	   19.132813
    7.4196	  0.018500	  0.043000	  1.007000	   -0.520000	    0.220000	    0.070000	   19.132813
    7.4296	  0.009000	  0.020500	  0.977000	   -0.230000	   -0.430000	    0.400000	   19.148438
    7.4398	  0.002000	  0.043000	  1.039500	   -0.730000	   -0.320000	    0.270000	   19.140625
    7.4500	  0.013500	  0.031000	  1.007000	   -0.340000	    0.080000	    0.350000	   19.148438
    7.4596	  0.021500	  0.038500	  0.997000	   -0.640000	    0.010000	    0.130000	   19.105469
    7.4696	  0.006500	  0.023000	  0.991000	   -0.330000	   -0.380000	    0.320000	   19.136719
    7.4796	 -0.009500	  0.043500	  1.030500	   -0.810000	   -0.350000	    0.090000	   19.136719
    7.4896	  0.007000	  0.031000	  1.015000	   -0.230000	   -0.070000	    0.280000	   19.152344
    7.4997	  0.027000	  0.038000	  1.008500	   -0.690000	    0.080000	    0.150000	   19.164063
    7.5096	  0.004000	  0.024000	  0.990000	   -0.180000	   -0.430000	    0.330000	   19.144531
    7.5198	 -0.012000	  0.043000	  1.041500	   -0.870000	   -0.310000	    0.250000	   19.152344
    7.5296	  0.016500	  0.029500	  1.016500	   -0.270000	    0.000000	    0.330000	   19.148438
    7.5396	  0.029000	  0.038000	  0.993000	   -0.680000	    0.010000	    0.140000	   19.167969
    7.5496	  0.001000	  0.022000	  0.988000	   -0.160000	   -0.370000	    0.260000	   19.152344
    7.5596	 -0.005500	  0.046000	  1.032000	   -0.750000	   -0.210000	    0.170000	   19.152344
    7.5696	  0.010500	  0.031500	  1.010500	   -0.260000	    0.090000	    0.280000	   19.156250
    7.5796	  0.022000	  0.037500	  1.009500	   -0.650000	    0.080000	    0.100000	   19.144531
    7.5896	  0.007500	  0.020500	  0.981000	   -0.150000	   -0.320000	    0.260000	   19.140625
    7.5999	 -0.011500	  0.044000	  1.035500	   -0.810000	   -0.460000	    0.130000	   19.167969
    7.6097	  0.012000	  0.031500	  1.030000	   -0.210000	    0.070000	    0.300000	   19.152344
    7.6196	  0.010500	  0.011500	  0.983500	   -0.270000	   -0.440000	    0.330000	   19.140625
    7.6296	  0.000500	  0.021000	  0.989000	   -0.180000	   -0.540000	    0.350000	   19.140625
    7.6396	 -0.016000	  0.050000	  1.041000	   -0.780000	   -0.160000	    0.240000	   19.144531
    7.6496	  0.019500	  0.031500	  1.002500	   -0.210000	    0.020000	    0.260000	   19.132813
    7.6596	  0.027000	  0.041500	  1.009500	   -0.510000	    0.040000	    0.120000	   19.117188
    7.6696	 -0.000500	  0.020000	  0.980000	   -0.290000	   -0.300000	    0.310000	   19.121094
    7.6798	 -0.003000	  0.042500	  1.023000	   -0.820000	   -0.400000	    0.230000	   19.128906
    7.6897	  0.014000	  0.027500	  1.035000	   -0.190000	   -0.090000	    0.270000	   19.121094
    7.6996	  0.019500	  0.038500	  1.004000	   -0.530000	    0.240000	    0.150000	   19.136719
    7.7096	  0.002000	  0.019500	  0.980000	   -0.330000	   -0.630000	    0.370000	   19.148438
    7.7196	 -0.005500	  0.044000	  1.052500	   -0.690000	   -0.210000	    0.270000	   19.156250
    7.7296	  0.014000	  0.032500	  1.004000	   -0.310000	    0.150000	    0.270000	   19.144531
    7.7396	  0.022000	  0.042500	  0.999000	   -0.620000	    0.000000	    0.050000	   19.132813
    7.7496	  0.005500	  0.021500	  0.998000	   -0.270000	   -0.370000	    0.310000	   19.121094
    7.7598	 -0.004000	  0.043000	  1.025000	   -0.740000	   -0.030000	    0.110000	   19.152344
    7.7696	  0.007000	  0.026000	  1.011500	   -0.140000	   -0.060000	    0.280000	   19.167969
    7.7796	  0.029000	  0.034500	  1.008500	   -0.670000	    0.110000	    0.180000	   19.136719
    7.7896	  0.009500	  0.020500	  0.984500	   -0.240000	   -0.540000	    0.420000	   19.125000
    7.7997	 -0.017500	  0.046000	  1.042000	   -0.670000	   -0.340000	    0.260000	   19.128906
    7.8096	  0.012000	  0.034000	  1.024000	   -0.240000	    0.170000	    0.310000	   19.167969
    7.8196	  0.033000	  0.040000	  1.000500	   -0.560000	    0.040000	    0.220000	   19.160156
    7.8296	 -0.002000	  0.022500	  0.983500	   -0.230000	   -0.520000	    0.390000	   19.148438
    7.8398	 -0.010000	  0.047000	  1.033000	   -0.790000	   -0.210000	    0.310000	   19.160156
    7.8496	  0.020500	  0.025000	  1.008500	   -0.420000	   -0.040000	    0.310000	   19.164063
    7.8597	  0.024500	  0.040000	  1.000000	   -0.520000	   -0.040000	    0.070000	   19.148438
    7.8696	 -0.002000	  0.017000	  0.982500	   -0.310000	   -0.540000	    0.310000	   19.140625
    7.8796	 -0.010500	  0.046500	  1.043000	   -0.740000	   -0.370000	    0.220000	   19.140625
    7.8896	  0.011000	  0.034000	  1.028500	   -0.270000	   -0.050000	    0.310000	   19.132813
    7.8997	  0.026000	  0.043500	  1.004500	   -0.540000	    0.150000	    0.120000	   19.121094
    7.9096	  0.008000	  0.018500	  0.979500	   -0.170000	   -0.470000	    0.340000	   19.144531
    7.9199	 -0.006000	  0.047500	  1.036500	   -0.710000	   -0.310000	    0.230000	   19.148438
    7.9296	  0.017000	  0.028500	  1.008000	   -0.100000	   -0.060000	    0.280000	   19.152344
    7.9396	  0.023500	  0.041000	  1.005000	   -0.570000	    0.060000	    0.190000	   19.144531
    7.9497	 -0.000500	  0.021000	  0.983500	   -0.160000	   -0.400000	    0.350000	   19.140625
    7.9596	 -0.006500	  0.043500	  1.032000	   -0.720000	   -0.250000	    0.240000	   19.144531
    7.9696	  0.013000	  0.032500	  1.024000	   -0.290000	   -0.110000	    0.220000	   19.152344
    7.9797	  0.021500	  0.039500	  1.004500	   -0.590000	    0.220000	    0.090000	   19.164063
    7.9897	  0.003000	  0.022500	  0.993500	   -0.100000	   -0.430000	    0.320000	   19.164063
    7.9999	 -0.002500	  0.041500	  1.039000	   -0.770000	   -0.250000	    0.180000	   19.164063
    8.0097	  0.011500	  0.031500	  1.010000	   -0.280000	    0.110000	    0.240000	   19.136719
    8.0196	  0.024500	  0.038000	  0.999000	   -0.600000	    0.210000	    0.070000	   19.125000
    8.0297	  0.010500	  0.020000	  0.987000	   -0.200000	   -0.470000	    0.350000	   19.144531
    8.0397	 -0.009000	  0.044500	  1.030500	   -0.750000	   -0.390000	    0.210000	   19.144531
    8.0497	  0.003000	  0.030500	  1.013000	   -0.280000	   -0.010000	    0.230000	   19.140625
    8.0596	  0.030000	  0.038000	  1.010500	   -0.590000	    0.070000	    0.130000	   19.144531
    8.0697	  0.008000	  0.019500	  0.983500	   -0.220000	   -0.540000	    0.410000	   19.144531
    8.0799	 -0.021500	  0.044500	  1.042000	   -0.730000	   -0.250000	    0.240000	   19.136719
    8.0897	  0.019500	  0.028000	  1.023000	   -0.390000	    0.050000	    0.440000	   19.136719
    8.0996	  0.038000	  0.039000	  0.992500	   -0.540000	    0.100000	    0.220000	   19.109375
    8.1097	 -0.016000	  0.032500	  1.000500	   -0.230000	   -0.560000	    0.380000	   19.117188
    8.1197	 -0.015000	  0.048500	  1.037000	   -0.800000	   -0.170000	    0.310000	   19.117188
    8.1297	  0.021000	  0.030500	  1.011000	   -0.340000	   -0.010000	    0.240000	   19.125000
    8.1397	  0.022500	  0.041500	  1.010500	   -0.590000	    0.030000	    0.130000	   19.140625
    8.1497	  0.004500	  0.017500	  0.973500	   -0.280000	   -0.320000	    0.260000	   19.148438
    8.1599	 -0.002000	  0.046000	  1.029000	   -0.680000	   -0.410000	    0.290000	   19.152344
    8.1697	  0.010500	  0.027000	  1.037000	   -0.420000	    0.020000	    0.280000	   19.144531
    8.1797	  0.023500	  0.043000	  1.002500	   -0.630000	    0.250000	    0.170000	   19.132813
    8.1897	  0.007000	  0.016500	  0.979000	   -0.250000	   -0.430000	    0.370000	   19.144531
    8.1997	 -0.008000	  0.047000	  1.051000	   -0.760000	   -0.220000	    0.190000	   19.140625
    8.2097	  0.014500	  0.029500	  0.999500	   -0.260000	    0.160000	    0.210000	   19.144531
    8.2197	  0.026500	  0.044500	  1.005000	   -0.610000	    0.060000	    0.180000	   19.121094
    8.2297	  0.001500	  0.020000	  0.991500	   -0.160000	   -0.240000	    0.300000	   19.117188
    8.2399	 -0.007000	  0.045000	  1.019000	   -0.710000	   -0.250000	    0.210000	   19.117188
    8.2497	  0.010000	  0.026500	  1.023000	   -0.310000	   -0.080000	    0.290000	   19.152344
    8.2597	  0.027000	  0.040000	  1.009000	   -0.670000	    0.180000	    0.160000	   19.144531
    8.2697	  0.005500	  0.019000	  0.979500	   -0.220000	   -0.600000	    0.300000	   19.183594
    8.2797	 -0.010500	  0.044000	  1.049000	   -0.800000	   -0.180000	    0.190000	   19.148438
    8.2897	  0.014000	  0.031500	  1.013000	   -0.200000	    0.140000	    0.240000	   19.117188
    8.2997	  0.026000	  0.042000	  0.999000	   -0.560000	   -0.080000	    0.110000	   19.128906
    8.3097	  0.001500	  0.020500	  0.992000	   -0.230000	   -0.480000	    0.370000	   19.136719
    8.3199	 -0.006000	  0.044500	  1.026000	   -0.740000	   -0.290000	    0.190000	   19.148438
    8.3297	  0.012000	  0.025500	  1.010500	   -0.260000	   -0.090000	    0.290000	   19.132813
    8.3397	  0.026500	  0.037000	  1.003500	   -0.570000	    0.080000	    0.170000	   19.156250
    8.3497	  0.002500	  0.019500	  0.987500	   -0.290000	   -0.560000	    0.320000	   19.156250
    8.3597	 -0.020500	  0.046000	  1.044000	   -0.620000	   -0.300000	    0.130000	   19.128906
    8.3697	  0.010000	  0.032500	  1.028000	   -0.340000	    0.060000	    0.300000	   19.152344
    8.3797	  0.032500	  0.042000	  0.999500	   -0.560000	    0.140000	    0.260000	   19.152344
    8.3897	  0.002000	  0.021000	  0.983000	   -0.130000	   -0.510000	    0.430000	   19.136719
    8.3999	 -0.005500	  0.048000	  1.030500	   -0.730000	   -0.290000	    0.240000	   19.144531
    8.4097	  0.021000	  0.027500	  1.010000	   -0.220000	    0.040000	    0.300000	   19.132813
    8.4197	  0.022000	  0.040500	  1.005000	   -0.570000	   -0.010000	    0.200000	   19.160156
    8.4297	 -0.002500	  0.019500	  0.978500	   -0.240000	   -0.380000	    0.290000	   19.136719
    8.4397	 -0.003500	  0.043500	  1.039500	   -0.840000	   -0.400000	    0.170000	   19.132813
    8.4501	  0.012000	  0.031500	  1.026500	   -0.280000	   -0.010000	    0.300000	   19.121094
    8.4597	  0.017500	  0.039500	  1.001500	   -0.590000	    0.010000	    0.210000	   19.148438
    8.4697	  0.005500	  0.020500	  0.994500	   -0.140000	   -0.430000	    0.340000	   19.156250
    8.4799	  0.000000	  0.043000	  1.035500	   -0.690000	   -0.120000	    0.180000	   19.160156
    8.4897	  0.009000	  0.031500	  1.003000	   -0.350000	    0.070000	    0.270000	   19.148438
    8.4997	  0.022000	  0.040000	  1.002000	   -0.580000	   -0.030000	    0.090000	   19.136719
    8.5097	  0.012500	  0.021000	  0.986000	   -0.270000	   -0.460000	    0.310000	   19.171875
    8.5197	 -0.012000	  0.043500	  1.030000	   -0.690000	   -0.510000	    0.210000	   19.148438
    8.5297	  0.004500	  0.030000	  1.018000	   -0.330000	   -0.130000	    0.300000	   19.140625
    8.5397	  0.028500	  0.040000	  1.010000	   -0.640000	    0.210000	    0.070000	   19.152344
    8.5497	  0.002500	  0.020500	  0.988000	   -0.280000	   -0.520000	    0.350000	   19.144531
    8.5599	 -0.015500	  0.042500	  1.043000	   -0.650000	   -0.240000	    0.180000	   19.136719
    8.5697	  0.021500	  0.029000	  1.015000	   -0.140000	    0.100000	    0.350000	   19.144531
    8.5797	  0.030500	  0.038000	  0.992500	   -0.620000	    0.070000	    0.130000	   19.136719
    8.5897	 -0.007000	  0.021500	  0.993500	   -0.150000	   -0.490000	    0.440000	   19.152344
    8.5997	 -0.009000	  0.046000	  1.033000	   -0.820000	   -0.250000	    0.230000	   19.152344
    8.6097	  0.016000	  0.032500	  1.008500	   -0.300000	   -0.050000	    0.290000	   19.132813
    8.6197	  0.023000	  0.036000	  1.007500	   -0.640000	   -0.030000	    0.120000	   19.132813
    8.6297	  0.007500	  0.022500	  0.980500	   -0.170000	   -0.410000	    0.360000	   19.171875
    8.6399	 -0.005500	  0.043000	  1.032000	   -0.880000	   -0.480000	    0.200000	   19.148438
    8.6497	  0.009500	  0.030500	  1.037500	   -0.250000	    0.080000	    0.340000	   19.136719
    8.6597	  0.028500	  0.037500	  0.995500	   -0.650000	    0.120000	    0.080000	   19.160156
    8.6697	  0.003000	  0.022500	  0.984500	   -0.330000	   -0.700000	    0.310000	   19.136719
    8.6798	 -0.011000	  0.047500	  1.043000	   -0.750000	   -0.260000	    0.200000	   19.156250
    8.6897	  0.029000	  0.050000	  1.010500	   -0.610000	   -0.140000	    0.210000	   19.160156
    8.6997	  0.024500	  0.040500	  1.005500	   -0.750000	   -0.210000	    0.180000	   19.160156
    8.7097	 -0.002500	  0.020000	  0.988000	   -0.190000	   -0.320000	    0.390000	   19.132813
    8.7199	 -0.003000	  0.043500	  1.027000	   -0.710000	   -0.300000	    0.220000	   19.140625
    8.7297	  0.014000	  0.026000	  1.027500	   -0.240000	   -0.050000	    0.310000	   19.136719
    8.7397	  0.022500	  0.039500	  1.006000	   -0.660000	    0.250000	    0.180000	   19.148438
    8.7497	  0.008500	  0.019000	  0.981500	   -0.290000	   -0.480000	    0.330000	   19.152344
    8.7597	 -0.005000	  0.046000	  1.048500	   -0.730000	   -0.320000	    0.140000	   19.152344
    8.7697	  0.011000	  0.033500	  1.007000	   -0.210000	    0.190000	    0.290000	   19.167969
    8.7797	  0.024000	  0.041500	  1.002500	   -0.630000	   -0.130000	    0.100000	   19.144531
    8.7897	  0.005000	  0.022000	  0.990500	   -0.200000	   -0.430000	    0.390000	   19.144531
    8.7999	 -0.011000	  0.042500	  1.024500	   -0.730000	   -0.280000	    0.110000	   19.152344
    8.8097	  0.011000	  0.027000	  1.017000	   -0.230000	    0.060000	    0.260000	   19.160156
    8.8197	  0.033500	  0.034000	  0.999500	   -0.690000	   -0.110000	    0.240000	   19.171875
    8.8297	 -0.000500	  0.022500	  0.988500	   -0.380000	   -0.630000	    0.430000	   19.160156
    8.8397	 -0.022500	  0.044000	  1.048000	   -0.660000	   -0.220000	    0.080000	   19.152344
    8.8497	  0.018500	  0.035000	  1.022500	   -0.260000	    0.160000	    0.290000	   19.148438
    8.8597	  0.034000	  0.039000	  0.994500	   -0.600000	    0.110000	    0.170000	   19.156250
    8.8697	 -0.002000	  0.024000	  0.986000	   -0.210000	   -0.450000	    0.250000	   19.136719
    8.8799	 -0.005000	  0.045000	  1.025000	   -0.790000	   -0.190000	    0.200000	   19.148438
    8.8897	  0.021000	  0.025500	  1.016500	   -0.320000	   -0.030000	    0.290000	   19.148438
    8.8997	  0.019500	  0.038500	  1.003500	   -0.610000	    0.120000	    0.040000	   19.164063
    8.9097	 -0.000500	  0.018500	  0.975000	   -0.330000	   -0.390000	    0.300000	   19.148438
    8.9197	 -0.008000	  0.044500	  1.045000	   -0.700000	   -0.430000	    0.190000	   19.156250
    8.9297	  0.010500	  0.033000	  1.034000	   -0.360000	    0.070000	    0.210000	   19.160156
    8.9397	  0.025500	  0.042000	  0.996500	   -0.480000	    0.230000	    0.210000	   19.167969
    8.9497	  0.004000	  0.018500	  0.991500	   -0.180000	   -0.560000	    0.340000	   19.148438
    8.9599	 -0.005000	  0.046500	  1.038500	   -0.700000	   -0.200000	    0.180000	   19.167969
    8.9697	  0.014500	  0.029000	  1.002500	   -0.250000	   -0.070000	    0.300000	   19.156250
    8.9797	  0.023000	  0.041000	  1.007000	   -0.480000	    0.000000	    0.170000	   19.144531
    8.9897	  0.008000	  0.017500	  0.981000	   -0.290000	   -0.260000	    0.290000	   19.136719
    8.9997	 -0.008500	  0.044500	  1.027000	   -0.610000	   -0.360000	    0.180000	   19.125000
    9.0097	  0.006000	  0.030000	  1.028500	   -0.370000	   -0.010000	    0.290000	   19.148438
    9.0197	  0.027500	  0.042500	  1.011500	   -0.550000	    0.310000	    0.120000	   19.167969
    9.0297	  0.008000	  0.018000	  0.980000	   -0.190000	   -0.560000	    0.380000	   19.187500
    9.0399	 -0.013000	  0.044000	  1.044000	   -0.620000	   -0.220000	    0.130000	   19.144531
    9.0497	  0.019500	  0.026000	  1.010000	   -0.380000	    0.230000	    0.310000	   19.152344
    9.0597	  0.032500	  0.043000	  0.993000	   -0.570000	   -0.050000	    0.270000	   19.164063
    9.0697	 -0.000500	  0.018000	  0.993000	   -0.280000	   -0.500000	    0.290000	   19.156250
    9.0797	 -0.015000	  0.047000	  1.030500	   -0.670000	   -0.300000	    0.190000	   19.136719
    9.0898	  0.009500	  0.030000	  1.015500	   -0.280000	    0.030000	    0.360000	   19.156250
    9.0997	  0.028500	  0.039000	  1.012000	   -0.610000	    0.030000	    0.170000	   19.156250
    9.1097	  0.000000	  0.030500	  0.991000	   -0.240000	   -0.430000	    0.350000	   19.156250
    9.1199	 -0.015000	  0.043500	  1.034000	   -0.790000	   -0.380000	    0.120000	   19.164063
    9.1297	  0.016000	  0.028000	  1.033000	   -0.330000	    0.020000	    0.220000	   19.164063
    9.1397	  0.033000	  0.041000	  0.996000	   -0.600000	    0.140000	    0.260000	   19.164063
    9.1497	 -0.002000	  0.020000	  0.982500	   -0.330000	   -0.740000	    0.290000	   19.156250
    9.1597	 -0.009000	  0.050000	  1.038000	   -0.550000	   -0.160000	    0.230000	   19.171875
    9.1697	  0.020000	  0.028000	  1.005000	   -0.410000	   -0.020000	    0.280000	   19.156250
    9.1797	  0.019500	  0.043000	  1.011500	   -0.650000	   -0.060000	    0.130000	   19.167969
    9.1898	  0.001500	  0.015000	  0.983000	   -0.300000	   -0.440000	    0.330000	   19.160156
    9.1999	 -0.002000	  0.047500	  1.028500	   -0.620000	   -0.340000	    0.230000	   19.167969
    9.2097	  0.005000	  0.024000	  1.031000	   -0.300000	    0.010000	    0.160000	   19.156250
    9.2197	  0.023000	  0.045000	  1.006000	   -0.550000	    0.290000	    0.160000	   19.167969
    9.2297	  0.014000	  0.015000	  0.978500	   -0.240000	   -0.520000	    0.350000	   19.136719
    9.2397	 -0.009500	  0.049500	  1.046500	   -0.630000	   -0.240000	    0.240000	   19.140625
    9.2497	  0.007500	  0.030000	  1.000500	   -0.390000	    0.010000	    0.210000	   19.167969
    9.2597	  0.028500	  0.043000	  1.010000	   -0.630000	    0.080000	    0.220000	   19.148438
    9.2697	  0.006500	  0.017500	  0.986500	   -0.190000	   -0.410000	    0.370000	   19.136719
    9.2799	 -0.012500	  0.045000	  1.021500	   -0.670000	   -0.330000	    0.280000	   19.156250
    9.2898	  0.011500	  0.023000	  1.021500	   -0.170000	   -0.020000	    0.180000	   19.144531
    9.2997	  0.034000	  0.040000	  1.005500	   -0.570000	    0.030000	    0.260000	   19.167969
    9.3097	 -0.002000	  0.018500	  0.989000	   -0.250000	   -0.640000	    0.400000	   19.175781
    9.3197	 -0.019500	  0.044000	  1.048500	   -0.710000	   -0.120000	    0.220000	   19.167969
    9.3297	  0.019500	  0.032000	  1.011500	   -0.290000	    0.150000	    0.360000	   19.125000
    9.3397	  0.028000	  0.041500	  1.000500	   -0.620000	   -0.070000	    0.130000	   19.152344
    9.3497	  0.000000	  0.024500	  0.987000	   -0.220000	   -0.320000	    0.310000	   19.148438
    9.3599	  0.001500	  0.044000	  1.020000	   -0.750000	   -0.300000	    0.250000	   19.164063
    9.3697	  0.011500	  0.027000	  1.019000	   -0.240000	   -0.180000	    0.290000	   19.144531
    9.3797	  0.019500	  0.037000	  1.004000	   -0.660000	    0.110000	    0.090000	   19.152344
    9.3897	  0.008000	  0.022000	  0.979000	   -0.300000	   -0.430000	    0.340000	   19.136719
    9.3997	 -0.010500	  0.041500	  1.047000	   -0.720000	   -0.440000	    0.260000	   19.144531
    9.4097	  0.009000	  0.034500	  1.029000	   -0.190000	    0.190000	    0.170000	   19.144531
    9.4197	  0.029000	  0.040000	  0.993000	   -0.690000	    0.100000	    0.170000	   19.156250
    9.4297	  0.000500	  0.021500	  0.992500	   -0.130000	   -0.580000	    0.340000	   19.156250
    9.4399	 -0.008000	  0.046000	  1.036500	   -0.680000	   -0.240000	    0.210000	   19.160156
    9.4501	  0.016500	  0.027500	  0.999000	   -0.320000	    0.000000	    0.290000	   19.160156
    9.4597	  0.020500	  0.037500	  1.006000	   -0.630000	    0.060000	    0.220000	   19.171875
    9.4697	  0.005500	  0.016500	  0.981500	   -0.210000	   -0.270000	    0.320000	   19.179688
    9.4797	 -0.004500	  0.043500	  1.030500	   -0.710000	   -0.430000	    0.250000	   19.156250
    9.4897	  0.003500	  0.030500	  1.034000	   -0.310000	   -0.160000	    0.360000	   19.167969
    9.4998	  0.022000	  0.042000	  1.007000	   -0.640000	    0.210000	    0.110000	   19.136719
    9.5097	  0.010000	  0.017000	  0.981500	   -0.250000	   -0.340000	    0.320000	   19.132813
    9.5200	 -0.006500	  0.045500	  1.045500	   -0.690000	   -0.220000	    0.250000	   19.148438
    9.5297	  0.017000	  0.028000	  1.003500	   -0.280000	    0.190000	    0.280000	   19.144531
    9.5397	  0.031500	  0.042500	  0.998500	   -0.600000	    0.020000	    0.160000	   19.152344
    9.5497	 -0.002500	  0.019000	  0.993000	   -0.350000	   -0.550000	    0.330000	   19.160156
    9.5597	 -0.015500	  0.045000	  1.032500	   -0.740000	   -0.220000	    0.100000	   19.144531
    9.5697	  0.011500	  0.030000	  1.017500	   -0.250000	    0.000000	    0.170000	   19.148438
    9.5797	  0.026500	  0.041000	  1.012500	   -0.690000	    0.220000	    0.080000	   19.148438
    9.5897	  0.005500	  0.021000	  0.979000	   -0.150000	   -0.360000	    0.280000	   19.160156
    9.6000	 -0.006500	  0.044000	  1.041000	   -0.770000	   -0.440000	    0.310000	   19.160156
    9.6097	  0.019000	  0.030000	  1.023000	   -0.240000	    0.050000	    0.300000	   19.175781
    9.6197	  0.025500	  0.040500	  0.992000	   -0.590000	    0.040000	    0.180000	   19.175781
    9.6297	 -0.001000	  0.022500	  0.988500	   -0.340000	   -0.460000	    0.320000	   19.156250
    9.6397	 -0.004000	  0.047500	  1.039000	   -0.720000	   -0.280000	    0.240000	   19.128906
    9.6497	  0.012000	  0.031000	  1.005000	   -0.340000	   -0.120000	    0.250000	   19.148438
    9.6599	  0.019500	  0.039500	  1.010000	   -0.680000	   -0.040000	    0.170000	   19.175781
    9.6697	  0.004000	  0.026000	  0.991500	   -0.110000	   -0.350000	    0.320000	   19.144531
    9.6800	 -0.011000	  0.040500	  1.038000	   -0.770000	   -0.440000	    0.170000	   19.140625
    9.6898	  0.031500	  0.050000	  1.006500	   -0.430000	    0.260000	    0.210000	   19.136719
    9.6998	  0.033000	  0.040500	  0.997500	   -0.570000	    0.180000	    0.110000	   19.136719
    9.7097	  0.006500	  0.019000	  0.985000	   -0.380000	   -0.680000	    0.210000	   19.136719
    9.7197	 -0.012500	  0.050000	  1.038000	   -0.690000	   -0.110000	    0.210000	   19.167969
    9.7297	  0.016000	  0.031000	  1.003000	   -0.340000	    0.090000	    0.260000	   19.171875
    9.7397	  0.027000	  0.041500	  1.012000	   -0.510000	   -0.020000	    0.140000	   19.152344
    9.7497	 -0.001000	  0.020000	  0.978000	   -0.220000	   -0.300000	    0.330000	   19.175781
    9.7600	 -0.008500	  0.043000	  1.025000	   -0.800000	   -0.440000	    0.240000	   19.164063
    9.7697	  0.015500	  0.026000	  1.029500	   -0.290000	    0.080000	    0.230000	   19.160156
    9.7798	  0.025500	  0.040500	  0.999000	   -0.550000	    0.170000	    0.220000	   19.167969
    9.7898	 -0.004000	  0.018500	  0.986000	   -0.250000	   -0.420000	    0.360000	   19.152344
    9.7997	 -0.013000	  0.046000	  1.052000	   -0.800000	   -0.180000	    0.150000	   19.183594
    9.8097	  0.015500	  0.033500	  1.001500	   -0.200000	    0.030000	    0.280000	   19.175781
    9.8198	  0.024000	  0.040500	  1.001500	   -0.590000	   -0.040000	    0.220000	   19.179688
    9.8297	  0.006000	  0.022500	  0.990500	   -0.280000	   -0.460000	    0.370000	   19.183594
    9.8400	 -0.001500	  0.041500	  1.016500	   -0.740000	   -0.340000	    0.130000	   19.164063
    9.8497	  0.009000	  0.027500	  1.021500	   -0.230000	   -0.130000	    0.350000	   19.160156
    9.8598	  0.026500	  0.033500	  1.006500	   -0.620000	    0.110000	    0.140000	   19.160156
    9.8697	  0.004000	  0.023000	  0.984000	   -0.280000	   -0.590000	    0.350000	   19.167969
    9.8798	 -0.015500	  0.041000	  1.050000	   -0.720000	   -0.300000	    0.170000	   19.179688
    9.8897	  0.016500	  0.035500	  1.023500	   -0.450000	    0.100000	    0.320000	   19.171875
    9.8998	  0.029500	  0.039500	  0.990000	   -0.600000	    0.030000	    0.260000	   19.164063
    9.9098	 -0.004500	  0.025000	  0.995500	   -0.360000	   -0.520000	    0.430000	   19.167969
    9.9200	 -0.003500	  0.043000	  1.033000	   -0.830000	   -0.230000	    0.100000	   19.160156
    9.9298	  0.016500	  0.029500	  1.004000	   -0.260000	   -0.050000	    0.340000	   19.160156
    9.9398	  0.019500	  0.036000	  1.005500	   -0.620000	    0.080000	    0.150000	   19.148438
    9.9498	  0.009000	  0.020000	  0.985000	   -0.310000	   -0.340000	    0.330000	   19.128906
    9.9598	 -0.006000	  0.044500	  1.034000	   -0.830000	   -0.430000	    0.270000	   19.136719
    9.9698	  0.004000	  0.034000	  1.032000	   -0.250000	   -0.020000	    0.330000	   19.171875
    9.9798	  0.029500	  0.041000	  1.004500	   -0.620000	    0.330000	    0.160000	   19.167969
    9.9898	  0.008500	  0.019500	  0.980000	   -0.200000	   -0.600000	    0.340000	   19.152344
   10.0000	 -0.014000	  0.046500	  1.042000	   -0.700000	   -0.200000	    0.160000	   19.148438
   10.0098	  0.017500	  0.028000	  1.003500	   -0.180000	    0.130000	    0.230000	   19.167969
   10.0198	  0.031000	  0.039500	  1.000500	   -0.690000	    0.080000	    0.070000	   19.183594
   10.0298	 -0.004500	  0.017000	  0.987000	   -0.170000	   -0.510000	    0.340000	   19.175781
   10.0398	 -0.014000	  0.044000	  1.031000	   -0.750000	   -0.320000	    0.220000	   19.183594
   10.0498	  0.016000	  0.031000	  1.026000	   -0.390000	    0.000000	    0.250000	   19.175781
   10.0598	  0.025000	  0.041500	  1.008500	   -0.670000	    0.080000	    0.270000	   19.167969
   10.0698	  0.003500	  0.020500	  0.980000	   -0.160000	   -0.500000	    0.290000	   19.167969
   10.0800	 -0.002500	  0.043000	  1.042500	   -0.720000	   -0.320000	    0.130000	   19.156250
   10.0898	  0.020500	  0.030500	  1.014000	   -0.290000	    0.070000	    0.260000	   19.175781
   10.0998	  0.022500	  0.040500	  0.996500	   -0.610000	    0.140000	    0.130000	   19.175781
   10.1098	  0.000000	  0.033000	  1.000500	   -0.220000	   -0.540000	    0.350000	   19.164063
   10.1198	 -0.004000	  0.043000	  1.032500	   -0.710000	   -0.220000	    0.230000	   19.164063
   10.1298	  0.007500	  0.031500	  1.011000	   -0.440000	   -0.130000	    0.240000	   19.144531
   10.1398	  0.024000	  0.039500	  1.010000	   -0.640000	    0.100000	    0.110000	   19.160156
   10.1498	  0.009500	  0.021000	  0.986500	   -0.170000	   -0.340000	    0.380000	   19.164063
   10.1600	 -0.014500	  0.043500	  1.041000	   -0.640000	   -0.320000	    0.160000	   19.152344
   10.1698	  0.011500	  0.030500	  1.023000	   -0.280000	   -0.010000	    0.290000	   19.144531
   10.1798	  0.036000	  0.039500	  0.993500	   -0.450000	    0.030000	    0.160000	   19.167969
   10.1898	  0.001500	  0.019500	  0.988000	   -0.190000	   -0.470000	    0.290000	   19.164063
   10.1998	 -0.014000	  0.048000	  1.036000	   -0.720000	   -0.130000	    0.210000	   19.152344
   10.2098	  0.015000	  0.030000	  1.005500	   -0.320000	    0.060000	    0.240000	   19.144531
   10.2198	  0.025000	  0.040000	  1.014500	   -0.670000	   -0.030000	    0.250000	   19.156250
   10.2298	  0.002000	  0.017000	  0.978000	   -0.170000	   -0.310000	    0.320000	   19.160156
   10.2400	 -0.009500	  0.045500	  1.029000	   -0.630000	   -0.380000	    0.210000	   19.160156
   10.2498	  0.013500	  0.027500	  1.034500	   -0.280000	   -0.040000	    0.340000	   19.175781
   10.2598	  0.029500	  0.041500	  0.998500	   -0.700000	    0.260000	    0.040000	   19.183594
   10.2698	 -0.000500	  0.016000	  0.985500	   -0.350000	   -0.740000	    0.320000	   19.175781
   10.2798	 -0.012000	  0.047500	  1.050500	   -0.800000	   -0.180000	    0.260000	   19.164063
   10.2898	  0.018000	  0.031500	  1.000000	   -0.200000	    0.070000	    0.270000	   19.160156
   10.2998	  0.025500	  0.041500	  1.006000	   -0.590000	   -0.100000	    0.140000	   19.164063
   10.3098	  0.004500	  0.022000	  0.987000	   -0.200000	   -0.380000	    0.380000	   19.160156
   10.3200	 -0.003000	  0.043000	  1.016000	   -0.800000	   -0.350000	    0.220000	   19.156250
   10.3298	  0.010500	  0.027500	  1.027000	   -0.240000	    0.000000	    0.310000	   19.156250
   10.3398	  0.024000	  0.038500	  1.006500	   -0.450000	    0.160000	    0.140000	   19.156250
   10.3498	  0.003500	  0.021500	  0.980000	   -0.240000	   -0.540000	    0.330000	   19.167969
   10.3598	 -0.010500	  0.044500	  1.052500	   -0.750000	   -0.260000	    0.210000	   19.167969
   10.3698	  0.017000	  0.033000	  1.011500	   -0.330000	    0.200000	    0.230000	   19.152344
   10.3798	  0.026000	  0.043000	  0.993500	   -0.570000	   -0.040000	    0.110000	   19.160156
   10.3898	 -0.001000	  0.022500	  0.998500	   -0.280000	   -0.530000	    0.310000	   19.171875
   10.4000	 -0.005000	  0.045500	  1.024500	   -0.710000	   -0.300000	    0.250000	   19.160156
   10.4098	  0.008500	  0.026000	  1.009000	   -0.280000	   -0.010000	    0.320000	   19.152344
   10.4198	  0.024500	  0.035500	  1.010000	   -0.510000	    0.150000	    0.060000	   19.148438
   10.4298	  0.010500	  0.019500	  0.980500	   -0.370000	   -0.450000	    0.300000	   19.164063
   10.4398	 -0.014500	  0.045500	  1.041000	   -0.740000	   -0.480000	    0.260000	   19.160156
   10.4502	  0.009500	  0.031500	  1.032000	   -0.390000	    0.080000	    0.230000	   19.140625
   10.4598	  0.033500	  0.038000	  1.001000	   -0.670000	    0.080000	    0.130000	   19.148438
   10.4698	 -0.000500	  0.019500	  0.981000	   -0.240000	   -0.530000	    0.480000	   19.160156
   10.4800	 -0.010000	  0.046500	  1.039000	   -0.670000	   -0.210000	    0.210000	   19.167969
   10.4898	  0.024500	  0.025000	  1.004000	   -0.100000	    0.030000	    0.160000	   19.167969
   10.4998	  0.024000	  0.042000	  1.001500	   -0.530000	   -0.020000	    0.220000	   19.183594
   10.5098	 -0.007500	  0.016500	  0.986500	   -0.270000	   -0.520000	    0.430000	   19.152344
   10.5198	 -0.006500	  0.043500	  1.036500	   -0.760000	   -0.240000	    0.190000	   19.144531
   10.5298	  0.011500	  0.031500	  1.026000	   -0.190000	   -0.080000	    0.340000	   19.144531
   10.5398	  0.018500	  0.042500	  1.009500	   -0.530000	    0.220000	    0.140000	   19.167969
   10.5498	  0.009500	  0.019500	  0.981500	   -0.150000	   -0.360000	    0.350000	   19.179688
   10.5600	  0.001000	  0.043500	  1.036500	   -0.720000	   -0.340000	    0.280000	   19.179688
   10.5698	  0.012000	  0.031000	  1.008500	   -0.250000	    0.010000	    0.350000	   19.128906
   10.5798	  0.023500	  0.039500	  0.996500	   -0.610000	    0.010000	    0.070000	   19.128906
   10.5898	  0.008000	  0.024000	  0.992000	   -0.260000	   -0.460000	    0.250000	   19.136719
   10.5998	 -0.009000	  0.042500	  1.031000	   -0.740000	   -0.330000	    0.150000	   19.167969
   10.6098	  0.008000	  0.033000	  1.014000	   -0.160000	    0.070000	    0.290000	   19.140625
   10.6198	  0.026000	  0.037500	  1.009500	   -0.670000	   -0.020000	    0.120000	   19.175781
   10.6298	  0.003000	  0.024500	  0.992000	   -0.150000	   -0.540000	    0.450000	   19.199219
   10.6400	 -0.012000	  0.040500	  1.039500	   -0.780000	   -0.300000	    0.220000	   19.175781
   10.6498	  0.016000	  0.031500	  1.015500	   -0.220000	    0.200000	    0.340000	   19.156250
   10.6598	  0.028000	  0.036000	  0.991500	   -0.570000	    0.080000	    0.170000	   19.148438
   10.6698	  0.001000	  0.024500	  0.993000	   -0.340000	   -0.550000	    0.460000	   19.136719
   10.6798	 -0.007000	  0.044000	  1.031000	   -0.780000	   -0.240000	    0.330000	   19.160156
   10.6898	  0.012500	  0.032500	  1.009000	   -0.140000	    0.030000	    0.350000	   19.148438
   10.6998	  0.021500	  0.035500	  1.009000	   -0.600000	    0.010000	    0.110000	   19.160156
   10.7098	  0.006000	  0.021500	  0.984000	   -0.200000	   -0.400000	    0.410000	   19.136719
   10.7200	 -0.010000	  0.042000	  1.036000	   -0.720000	   -0.390000	    0.280000	   19.156250
   10.7298	  0.014000	  0.029500	  1.033000	   -0.300000	    0.070000	    0.370000	   19.195313
   10.7398	  0.032000	  0.037000	  0.991500	   -0.570000	    0.250000	    0.210000	   19.171875
   10.7498	 -0.002000	  0.020500	  0.989000	   -0.290000	   -0.640000	    0.450000	   19.152344
   10.7598	 -0.012000	  0.047000	  1.047000	   -0.700000	   -0.040000	    0.140000	   19.160156
   10.7698	  0.020500	  0.033000	  1.000500	   -0.230000	    0.070000	    0.290000	   19.175781
   10.7798	  0.024000	  0.039500	  1.008500	   -0.680000	   -0.140000	    0.150000	   19.164063
   10.7898	  0.000500	  0.021500	  0.982500	   -0.220000	   -0.260000	    0.340000	   19.175781
   10.8001	  0.000000	  0.041500	  1.023500	   -0.690000	   -0.360000	    0.310000	   19.167969
   10.8098	  0.019500	  0.048000	  1.008500	   -0.590000	    0.380000	    0.190000	   19.167969
   10.8198	  0.019500	  0.037500	  1.004500	   -0.700000	    0.270000	    0.150000	   19.167969
   10.8298	  0.004500	  0.020500	  0.982000	   -0.120000	   -0.550000	    0.340000	   19.164063
   10.8398	 -0.005500	  0.043000	  1.050500	   -0.930000	   -0.290000	    0.230000	   19.167969
   10.8498	  0.014500	  0.033000	  1.003000	   -0.240000	    0.090000	    0.230000	   19.179688
   10.8598	  0.022500	  0.041500	  0.996500	   -0.560000	   -0.170000	    0.180000	   19.175781
   10.8698	  0.002000	  0.024000	  0.999500	   -0.250000	   -0.420000	    0.320000	   19.175781
   10.8800	 -0.005500	  0.042500	  1.024000	   -0.770000	   -0.200000	    0.230000	   19.152344
   10.8898	  0.008500	  0.030500	  1.012000	   -0.180000	   -0.040000	    0.320000	   19.148438
   10.8999	  0.027500	  0.031500	  1.006000	   -0.700000	    0.080000	    0.170000	   19.175781
   10.9098	  0.006500	  0.024000	  0.987500	   -0.290000	   -0.500000	    0.360000	   19.171875
   10.9198	 -0.013500	  0.042500	  1.043500	   -0.780000	   -0.290000	    0.150000	   19.183594
   10.9298	  0.017500	  0.034000	  1.022500	   -0.320000	    0.240000	    0.330000	   19.179688
   10.9398	  0.031500	  0.034500	  0.995000	   -0.660000	   -0.020000	    0.120000	   19.167969
   10.9498	 -0.003500	  0.025500	  0.989500	   -0.230000	   -0.530000	    0.350000	   19.156250
   10.9600	 -0.005000	  0.042500	  1.033000	   -0.810000	   -0.230000	    0.110000	   19.156250
   10.9698	  0.020500	  0.028000	  1.008500	   -0.220000	   -0.040000	    0.440000	   19.156250
   10.9798	  0.020000	  0.035500	  0.997500	   -0.710000	   -0.020000	    0.250000	   19.167969
   10.9899	 -0.003000	  0.020000	  0.989500	   -0.190000	   -0.450000	    0.350000	   19.167969
   10.9998	 -0.010500	  0.041000	  1.042500	   -0.870000	   -0.360000	    0.280000	   19.156250
   11.0098	  0.010500	  0.035500	  1.028000	   -0.200000	    0.170000	    0.440000	   19.171875
   11.0198	  0.025000	  0.040000	  1.001500	   -0.520000	    0.160000	    0.120000	   19.171875
   11.0298	  0.007500	  0.021500	  0.981500	   -0.270000	   -0.360000	    0.440000	   19.167969
   11.0400	 -0.004000	  0.043500	  1.036000	   -0.690000	   -0.080000	    0.110000	   19.152344
   11.0498	  0.016000	  0.032500	  1.007500	   -0.170000	    0.000000	    0.280000	   19.164063
   11.0598	  0.025000	  0.037000	  1.000000	   -0.560000	    0.010000	    0.100000	   19.167969
   11.0698	  0.001500	  0.023000	  0.988000	   -0.360000	   -0.330000	    0.350000	   19.132813
   11.0798	 -0.008500	  0.041500	  1.035500	   -0.760000	   -0.300000	    0.060000	   19.183594
   11.0899	  0.011500	  0.035500	  1.021500	   -0.230000	    0.170000	    0.260000	   19.175781
   11.0998	  0.021500	  0.035500	  1.002000	   -0.580000	   -0.030000	    0.080000	   19.152344
   11.1098	 -0.004500	  0.036500	  1.009500	   -0.390000	   -0.460000	    0.340000	   19.160156
   11.1200	 -0.004500	  0.038500	  1.038500	   -0.730000	   -0.150000	    0.130000	   19.167969
   11.1298	  0.014000	  0.034500	  1.007500	   -0.150000	    0.130000	    0.210000	   19.144531
   11.1398	  0.023000	  0.036000	  0.997000	   -0.630000	    0.150000	    0.150000	   19.164063
   11.1498	  0.007500	  0.023000	  0.989500	   -0.250000	   -0.390000	    0.350000	   19.164063
   11.1598	 -0.009000	  0.042000	  1.031000	   -0.790000	   -0.360000	    0.210000	   19.152344
   11.1698	  0.007500	  0.034000	  1.013000	   -0.290000	    0.050000	    0.270000	   19.140625
   11.1798	  0.030500	  0.035000	  1.005500	   -0.500000	    0.190000	    0.140000	   19.136719
   11.1899	  0.005500	  0.024000	  0.988500	   -0.270000	   -0.500000	    0.300000	   19.152344
   11.2000	 -0.018500	  0.040500	  1.041000	   -0.760000	   -0.300000	    0.190000	   19.144531
   11.2098	  0.020500	  0.032000	  1.021500	   -0.020000	    0.320000	    0.250000	   19.160156
   11.2198	  0.035000	  0.035000	  0.990500	   -0.620000	   -0.010000	    0.190000	   19.171875
   11.2298	 -0.010500	  0.026000	  0.991000	   -0.260000	   -0.510000	    0.440000	   19.195313
   11.2398	 -0.015500	  0.048500	  1.037000	   -0.760000	   -0.070000	    0.180000	   19.175781
   11.2498	  0.020500	  0.032500	  1.007500	   -0.220000	    0.070000	    0.270000	   19.167969
   11.2598	  0.022500	  0.038500	  1.005000	   -0.590000	    0.060000	    0.040000	   19.167969
   11.2698	  0.001500	  0.021000	  0.977500	   -0.260000	   -0.410000	    0.380000	   19.179688
   11.2800	 -0.003500	  0.044000	  1.030000	   -0.710000	   -0.440000	    0.250000	   19.167969
   11.2899	  0.013500	  0.029000	  1.034500	   -0.230000	   -0.070000	    0.200000	   19.144531
   11.2998	  0.024000	  0.036500	  0.998000	   -0.650000	    0.240000	    0.100000	   19.148438
   11.3098	  0.000000	  0.019500	  0.980500	   -0.200000	   -0.690000	    0.390000	   19.148438
   11.3198	 -0.008500	  0.044500	  1.051500	   -0.770000	   -0.220000	    0.050000	   19.148438
   11.3298	  0.017000	  0.033000	  1.000000	   -0.300000	    0.170000	    0.290000	   19.156250
   11.3398	  0.022000	  0.041000	  1.004000	   -0.550000	   -0.110000	    0.150000	   19.183594
   11.3498	  0.000500	  0.022500	  0.993000	   -0.050000	   -0.330000	    0.210000	   19.183594
   11.3600	 -0.005000	  0.041000	  1.022000	   -0.780000	   -0.270000	    0.150000	   19.175781
   11.3698	  0.009500	  0.029000	  1.025500	   -0.170000	   -0.170000	    0.210000	   19.164063
   11.3798	  0.028000	  0.033000	  1.007000	   -0.610000	    0.030000	    0.140000	   19.179688
   11.3898	  0.006000	  0.021500	  0.985000	   -0.150000	   -0.560000	    0.280000	   19.171875
   11.3998	 -0.013500	  0.042000	  1.049500	   -0.810000	   -0.310000	    0.280000	   19.183594
   11.4098	  0.018000	  0.035000	  1.012500	   -0.160000	    0.090000	    0.210000	   19.171875
   11.4198	  0.028000	  0.039500	  0.999000	   -0.640000	   -0.110000	    0.130000	   19.183594
   11.4298	  0.000500	  0.026500	  0.994500	   -0.160000	   -0.470000	    0.260000	   19.167969
   11.4400	 -0.008000	  0.043500	  1.027000	   -0.690000	   -0.230000	    0.180000	   19.167969
   11.4502	  0.015000	  0.029000	  1.011500	   -0.200000	    0.050000	    0.260000	   19.156250
   11.4598	  0.028500	  0.030000	  0.999500	   -0.650000	    0.050000	    0.080000	   19.175781
   11.4699	  0.000000	  0.021000	  0.988500	   -0.310000	   -0.490000	    0.320000	   19.175781
   11.4798	 -0.021000	  0.044000	  1.047000	   -0.760000	   -0.300000	    0.140000	   19.160156
   11.4898	  0.013500	  0.035000	  1.029000	   -0.330000	    0.080000	    0.210000	   19.144531
   11.4999	  0.032500	  0.037500	  1.000000	   -0.620000	    0.030000	    0.120000	   19.156250
   11.5098	  0.001000	  0.024000	  0.984000	   -0.210000	   -0.470000	    0.230000	   19.156250
   11.5201	 -0.006000	  0.046000	  1.030500	   -0.680000	   -0.300000	    0.160000	   19.167969
   11.5298	  0.022500	  0.028500	  1.014000	   -0.450000	   -0.020000	    0.220000	   19.156250
   11.5398	  0.022500	  0.039500	  1.002500	   -0.620000	    0.100000	    0.160000	   19.164063
   11.5499	 -0.001500	  0.018500	  0.978500	   -0.430000	   -0.610000	    0.360000	   19.175781
   11.5598	 -0.003500	  0.043500	  1.042000	   -0.710000	   -0.340000	    0.180000	   19.148438
   11.5699	  0.016500	  0.032500	  1.027000	   -0.240000	    0.110000	    0.220000	   19.171875
   11.5799	  0.021000	  0.042000	  1.001500	   -0.480000	    0.120000	    0.140000	   19.167969
   11.5899	  0.004000	  0.021000	  0.991500	   -0.270000	   -0.420000	    0.340000	   19.167969
   11.6001	  0.000000	  0.043500	  1.038000	   -0.600000	   -0.170000	    0.210000	   19.160156
   11.6099	  0.010500	  0.030500	  1.003000	   -0.260000	    0.010000	    0.240000	   19.175781
   11.6198	  0.023500	  0.041000	  1.003500	   -0.690000	    0.190000	    0.230000	   19.164063
   11.6299	  0.013000	  0.018500	  0.984500	   -0.170000	   -0.530000	    0.260000	   19.175781
   11.6399	 -0.011000	  0.044000	  1.028500	   -0.740000	   -0.420000	    0.200000	   19.183594
   11.6499	  0.029000	  0.051500	  1.012500	   -0.470000	    0.270000	    0.200000	   19.171875
   11.6599	  0.030500	  0.039500	  1.009000	   -0.590000	    0.130000	    0.190000	   19.171875
   11.6699	  0.004000	  0.019000	  0.983000	   -0.210000	   -0.610000	    0.310000	   19.179688
   11.6801	 -0.018500	  0.041500	  1.044500	   -0.690000	   -0.230000	    0.230000	   19.175781
   11.6899	  0.022500	  0.027000	  1.012000	   -0.160000	    0.250000	    0.290000	   19.156250
   11.6999	  0.034000	  0.039500	  0.991000	   -0.660000	    0.080000	    0.130000	   19.156250
   11.7099	 -0.008500	  0.021500	  0.994000	   -0.310000	   -0.550000	    0.230000	   19.171875
   11.7198	 -0.014500	  0.046500	  1.033000	   -0.710000	   -0.210000	    0.290000	   19.175781
   11.7299	  0.014500	  0.031000	  1.010500	   -0.290000	   -0.030000	    0.290000	   19.167969
   11.7398	  0.022500	  0.038000	  1.010000	   -0.650000	    0.080000	    0.280000	   19.183594
   11.7499	  0.005500	  0.020000	  0.977500	   -0.290000	   -0.350000	    0.370000	   19.183594
   11.7601	 -0.007000	  0.044000	  1.033000	   -0.700000	   -0.390000	    0.300000	   19.152344
   11.7699	  0.011500	  0.030500	  1.035000	   -0.200000	    0.140000	    0.230000	   19.156250
   11.7799	  0.029000	  0.038500	  0.995500	   -0.610000	    0.220000	    0.200000	   19.167969
   11.7899	  0.001000	  0.019500	  0.983500	   -0.280000	   -0.570000	    0.340000	   19.183594
   11.7999	 -0.009500	  0.047000	  1.046500	   -0.730000	   -0.240000	    0.230000	   19.164063
   11.8099	  0.019000	  0.031000	  1.000000	   -0.230000	    0.090000	    0.360000	   19.136719
   11.8199	  0.023000	  0.042500	  1.010000	   -0.510000	    0.000000	    0.180000	   19.152344
   11.8299	  0.002500	  0.019000	  0.988500	   -0.130000	   -0.320000	    0.260000	   19.164063
   11.8401	 -0.004500	  0.043500	  1.025500	   -0.620000	   -0.330000	    0.170000	   19.175781
   11.8499	  0.007000	  0.027000	  1.026500	   -0.290000	   -0.090000	    0.260000	   19.187500
   11.8599	  0.023500	  0.039000	  1.006500	   -0.690000	    0.200000	    0.140000	   19.195313
   11.8699	  0.008500	  0.017000	  0.984500	   -0.190000	   -0.500000	    0.430000	   19.191406
   11.8799	 -0.010500	  0.045500	  1.048000	   -0.600000	   -0.220000	    0.250000	   19.171875
   11.8899	  0.010000	  0.032000	  1.001000	   -0.190000	    0.220000	    0.150000	   19.171875
   11.8999	  0.027500	  0.040000	  1.004500	   -0.550000	    0.070000	    0.190000	   19.175781
   11.9099	  0.004000	  0.021500	  0.991000	   -0.160000	   -0.490000	    0.310000	   19.187500
   11.9201	 -0.014500	  0.045000	  1.022500	   -0.770000	   -0.240000	    0.170000	   19.167969
   11.9299	  0.013000	  0.025500	  1.013500	   -0.110000	    0.020000	    0.280000	   19.148438
   11.9399	  0.033500	  0.035000	  1.001000	   -0.610000	    0.030000	    0.040000	   19.144531
   11.9499	 -0.002000	  0.022000	  0.986000	   -0.300000	   -0.620000	    0.470000	   19.183594
   11.9599	 -0.020000	  0.044500	  1.047000	   -0.730000	   -0.380000	    0.300000	   19.195313
   11.9699	  0.018500	  0.032500	  1.020500	   -0.260000	    0.160000	    0.340000	   19.171875
   11.9799	  0.028500	  0.040500	  0.993500	   -0.600000	   -0.030000	    0.180000	   19.171875
   11.9899	 -0.002000	  0.024000	  0.985000	   -0.190000	   -0.410000	    0.310000	   19.156250
   12.0001	 -0.001000	  0.045500	  1.028500	   -0.710000	   -0.240000	    0.190000	   19.175781
   12.0099	  0.017500	  0.028000	  1.011500	   -0.200000	   -0.030000	    0.310000	   19.183594
   12.0199	  0.019000	  0.038500	  1.003000	   -0.530000	    0.090000	    0.220000	   19.191406
   12.0299	  0.006500	  0.019000	  0.980500	   -0.300000	   -0.600000	    0.360000	   19.175781
   12.0399	 -0.007000	  0.043000	  1.043000	   -0.740000	   -0.390000	    0.310000	   19.183594
   12.0499	  0.007000	  0.033500	  1.026500	   -0.220000	    0.070000	    0.220000	   19.167969
   12.0599	  0.027000	  0.040500	  0.998500	   -0.540000	    0.120000	    0.190000	   19.171875
   12.0699	  0.007000	  0.020500	  0.993500	   -0.220000	   -0.460000	    0.390000	   19.167969
   12.0801	 -0.007500	  0.045500	  1.035500	   -0.680000	   -0.220000	    0.250000	   19.207031
   12.0899	  0.011500	  0.030000	  1.003000	   -0.300000	    0.020000	    0.270000	   19.195313
   12.0999	  0.026000	  0.039000	  1.009000	   -0.530000	    0.000000	    0.140000	   19.195313
   12.1099	  0.002000	  0.029500	  0.993500	   -0.360000	   -0.430000	    0.340000	   19.164063
   12.1199	 -0.013000	  0.040500	  1.029500	   -0.780000	   -0.380000	    0.320000	   19.152344
   12.1299	  0.008000	  0.031000	  1.026500	   -0.300000	   -0.010000	    0.310000	   19.156250
   12.1399	  0.030000	  0.040500	  1.008500	   -0.720000	    0.180000	    0.180000	   19.179688
   12.1499	  0.003500	  0.020500	  0.986500	   -0.220000	   -0.510000	    0.290000	   19.191406
   12.1601	 -0.012000	  0.043500	  1.043000	   -0.710000	   -0.170000	    0.170000	   19.167969
   12.1699	  0.022000	  0.030000	  1.008000	   -0.220000	    0.230000	    0.320000	   19.183594
   12.1799	  0.029500	  0.040500	  0.997000	   -0.560000	   -0.060000	    0.260000	   19.167969
   12.1899	 -0.004500	  0.021000	  0.992500	   -0.280000	   -0.490000	    0.430000	   19.179688
   12.1999	 -0.012500	  0.044500	  1.032000	   -0.770000	   -0.290000	    0.160000	   19.160156
   12.2099	  0.012000	  0.031000	  1.014500	   -0.270000	    0.010000	    0.390000	   19.167969
   12.2199	  0.025500	  0.036500	  1.008000	   -0.540000	    0.070000	    0.160000	   19.164063
   12.2299	  0.005500	  0.023000	  0.981000	   -0.250000	   -0.450000	    0.310000	   19.148438
   12.2401	 -0.009500	  0.044500	  1.037000	   -0.760000	   -0.450000	    0.250000	   19.156250
   12.2499	  0.016500	  0.030500	  1.030000	   -0.280000	    0.270000	    0.240000	   19.164063
   12.2599	  0.030000	  0.039000	  0.994000	   -0.480000	    0.150000	    0.090000	   19.167969
   12.2699	 -0.000500	  0.021500	  0.983500	   -0.310000	   -0.650000	    0.360000	   19.179688
   12.2799	 -0.010500	  0.049500	  1.039500	   -0.680000	   -0.290000	    0.180000	   19.195313
   12.2899	  0.016500	  0.027500	  1.001500	   -0.210000	    0.090000	    0.200000	   19.175781
   12.2999	  0.022500	  0.041500	  1.008500	   -0.710000	   -0.050000	    0.160000	   19.171875
   12.3099	  0.000000	  0.016500	  0.983500	   -0.240000	   -0.460000	    0.290000	   19.164063
   12.3201	 -0.006000	  0.046500	  1.030500	   -0.640000	   -0.230000	    0.290000	   19.144531
   12.3299	  0.011000	  0.027000	  1.031500	   -0.210000	   -0.090000	    0.230000	   19.152344
   12.3399	  0.027000	  0.042000	  1.002500	   -0.510000	    0.290000	    0.180000	   19.195313
   12.3499	  0.007000	  0.018000	  0.981500	   -0.260000	   -0.560000	    0.400000	   19.183594
   12.3599	 -0.010500	  0.048500	  1.045500	   -0.780000	   -0.170000	    0.280000	   19.156250
   12.3699	  0.013500	  0.032000	  1.002000	   -0.350000	    0.110000	    0.350000	   19.144531
   12.3799	  0.028000	  0.040500	  1.008000	   -0.650000	   -0.050000	    0.130000	   19.136719
   12.3899	  0.002500	  0.020000	  0.987000	   -0.110000	   -0.410000	    0.300000	   19.167969
   12.4001	 -0.009500	  0.043000	  1.021500	   -0.750000	   -0.230000	    0.170000	   19.171875
   12.4099	  0.015000	  0.023500	  1.021000	   -0.160000	    0.010000	    0.220000	   19.183594
   12.4199	  0.031000	  0.037500	  1.003000	   -0.520000	    0.190000	    0.180000	   19.183594
   12.4299	 -0.004500	  0.020500	  0.989000	   -0.250000	   -0.630000	    0.270000	   19.183594
   12.4399	 -0.018000	  0.045000	  1.053500	   -0.770000	   -0.180000	    0.180000	   19.187500
   12.4503	  0.018000	  0.033000	  1.011500	   -0.340000	    0.180000	    0.370000	   19.191406
   12.4599	  0.025500	  0.038000	  0.995000	   -0.670000	   -0.140000	    0.180000	   19.171875
   12.4699	  0.001000	  0.025500	  0.989500	   -0.170000	   -0.550000	    0.330000	   19.164063
   12.4801	 -0.002500	  0.043000	  1.019500	   -0.720000	   -0.240000	    0.210000	   19.179688
   12.4899	  0.013000	  0.027000	  1.016500	   -0.240000	   -0.150000	    0.210000	   19.183594
   12.4999	  0.022500	  0.035500	  1.003500	   -0.530000	    0.150000	    0.130000	   19.203125
   12.5099	  0.005000	  0.022000	  0.982000	   -0.190000	   -0.530000	    0.370000	   19.187500
   12.5199	 -0.014000	  0.042500	  1.046500	   -0.660000	   -0.420000	    0.230000	   19.167969
   12.5299	  0.013000	  0.033500	  1.026000	   -0.430000	    0.150000	    0.320000	   19.167969
   12.5399	  0.030500	  0.040000	  0.992000	   -0.620000	   -0.100000	    0.320000	   19.164063
   12.5499	 -0.004000	  0.021000	  0.993000	   -0.320000	   -0.500000	    0.300000	   19.175781
   12.5601	 -0.007000	  0.045000	  1.036000	   -0.600000	   -0.100000	    0.190000	   19.167969
   12.5699	  0.018500	  0.027000	  1.002000	   -0.270000	    0.060000	    0.270000	   19.167969
   12.5799	  0.021500	  0.039000	  1.009000	   -0.410000	    0.150000	    0.110000	   19.183594
   12.5899	  0.005000	  0.018000	  0.983000	   -0.440000	   -0.370000	    0.240000	   19.191406
   12.5999	 -0.005500	  0.045000	  1.030500	   -0.880000	   -0.410000	    0.140000	   19.167969
