ï»¿Time_s    	AccX_g    	AccY_g    	AccZ_g    	GyroX_degs  	GyroY_degs  	GyroZ_degs  	IMU_Temperature
    0.0592	  0.021000	 -0.037500	  0.995500	   -0.150000	   -0.100000	   -0.090000	    9.527344
    0.0612	  0.026000	 -0.036500	  0.995500	   -0.270000	   -0.200000	    0.020000	    9.511719
    0.0637	  0.025000	 -0.037500	  0.994500	   -0.280000	   -0.100000	   -0.050000	    9.535156
    0.0661	  0.024500	 -0.037000	  0.995500	   -0.310000	   -0.190000	    0.070000	    9.554688
    0.0686	  0.024500	 -0.037500	  0.996000	   -0.250000	   -0.020000	   -0.120000	    9.546875
    0.0710	  0.024000	 -0.038000	  0.996000	   -0.210000	   -0.140000	    0.020000	    9.539063
    0.0735	  0.024000	 -0.038000	  0.996500	   -0.310000	   -0.140000	    0.120000	    9.558594
    0.0759	  0.023500	 -0.037500	  0.997000	   -0.280000	   -0.100000	   -0.010000	    9.523438
    0.0859	  0.024000	 -0.037500	  0.996000	   -0.320000	    0.100000	    0.040000	    9.531250
    0.0959	  0.022500	 -0.038000	  0.996500	   -0.170000	    0.010000	   -0.040000	    9.542969
    0.1060	  0.023000	 -0.037500	  0.997000	   -0.300000	    0.010000	    0.070000	    9.550781
    0.1159	  0.024000	 -0.037000	  0.997500	   -0.250000	    0.000000	   -0.020000	    9.527344
    0.1259	  0.022000	 -0.037000	  0.998000	   -0.220000	    0.070000	   -0.090000	    9.527344
    0.1361	  0.022500	 -0.036500	  0.997500	   -0.210000	    0.030000	    0.000000	    9.539063
    0.1459	  0.020500	 -0.036500	  0.997000	   -0.250000	    0.080000	    0.100000	    9.531250
    0.1559	  0.021500	 -0.037500	  0.996500	   -0.220000	    0.050000	   -0.030000	    9.523438
    0.1659	  0.022000	 -0.036000	  0.997000	   -0.170000	   -0.030000	   -0.070000	    9.515625
    0.1759	  0.020500	 -0.035500	  0.996000	   -0.210000	   -0.080000	    0.000000	    9.519531
    0.1859	  0.019000	 -0.037000	  0.995500	   -0.270000	    0.010000	    0.010000	    9.550781
    0.1959	  0.018500	 -0.036000	  0.995000	   -0.130000	   -0.110000	    0.040000	    9.535156
    0.2060	  0.018000	 -0.035500	  0.995500	   -0.260000	   -0.120000	    0.030000	    9.550781
    0.2161	  0.018500	 -0.036000	  0.994500	   -0.220000	   -0.090000	   -0.050000	    9.554688
    0.2260	  0.017000	 -0.035500	  0.996000	   -0.210000	   -0.060000	   -0.020000	    9.542969
    0.2359	  0.017500	 -0.035000	  0.994500	   -0.270000	   -0.140000	    0.010000	    9.535156
    0.2459	  0.018000	 -0.035000	  0.995000	   -0.280000	   -0.110000	    0.010000	    9.546875
    0.2559	  0.017000	 -0.035000	  0.995000	   -0.240000	   -0.050000	    0.050000	    9.519531
    0.2659	  0.017000	 -0.035000	  0.995000	   -0.370000	    0.020000	    0.040000	    9.535156
    0.2759	  0.017000	 -0.036500	  0.996000	   -0.320000	   -0.150000	    0.080000	    9.527344
    0.2859	  0.018000	 -0.034500	  0.994500	   -0.280000	   -0.060000	    0.010000	    9.507813
    0.2961	  0.018000	 -0.035500	  0.995500	   -0.310000	   -0.080000	   -0.010000	    9.535156
    0.3060	  0.019000	 -0.035500	  0.997000	   -0.330000	   -0.050000	    0.030000	    9.558594
    0.3159	  0.018500	 -0.035500	  0.996000	   -0.290000	   -0.160000	   -0.100000	    9.542969
    0.3259	  0.018500	 -0.035500	  0.997500	   -0.440000	   -0.180000	    0.020000	    9.515625
    0.3359	  0.019500	 -0.035500	  0.997000	   -0.200000	   -0.140000	   -0.040000	    9.511719
    0.3460	  0.020000	 -0.036500	  0.997000	   -0.290000	   -0.180000	   -0.020000	    9.539063
    0.3559	  0.020000	 -0.036500	  0.996500	   -0.320000	   -0.110000	   -0.050000	    9.535156
    0.3659	  0.020500	 -0.036500	  0.996500	   -0.320000	   -0.250000	   -0.080000	    9.542969
    0.3762	  0.021500	 -0.036500	  0.995500	   -0.230000	   -0.070000	    0.000000	    9.554688
    0.3859	  0.023000	 -0.037000	  0.996500	   -0.320000	   -0.220000	    0.020000	    9.542969
    0.3959	  0.022500	 -0.038000	  0.996000	   -0.300000	   -0.080000	    0.030000	    9.531250
    0.4060	  0.023000	 -0.037500	  0.995500	   -0.230000	   -0.090000	   -0.030000	    9.531250
    0.4159	  0.024000	 -0.037500	  0.995500	   -0.280000	   -0.020000	    0.100000	    9.523438
    0.4259	  0.024500	 -0.037500	  0.996500	   -0.230000	   -0.080000	   -0.010000	    9.523438
    0.4359	  0.024500	 -0.037000	  0.995000	   -0.360000	   -0.110000	   -0.050000	    9.519531
    0.4459	  0.024500	 -0.038500	  0.996000	   -0.380000	   -0.130000	    0.050000	    9.515625
    0.4562	  0.024000	 -0.036500	  0.996000	   -0.240000	   -0.130000	    0.070000	    9.527344
    0.4659	  0.024500	 -0.036500	  0.996500	   -0.240000	   -0.100000	   -0.030000	    9.531250
    0.4759	  0.024500	 -0.037000	  0.996500	   -0.240000	    0.010000	   -0.080000	    9.535156
    0.4859	  0.023500	 -0.037000	  0.996000	   -0.380000	   -0.040000	    0.000000	    9.519531
    0.4959	  0.023500	 -0.037500	  0.995500	   -0.130000	   -0.160000	   -0.020000	    9.562500
    0.5060	  0.024000	 -0.036500	  0.996000	   -0.280000	   -0.080000	   -0.090000	    9.562500
    0.5159	  0.022500	 -0.036000	  0.995500	   -0.290000	   -0.050000	   -0.010000	    9.542969
    0.5259	  0.022500	 -0.037000	  0.995000	   -0.240000	    0.010000	    0.060000	    9.554688
    0.5362	  0.021500	 -0.036500	  0.994500	   -0.220000	    0.050000	   -0.030000	    9.554688
    0.5459	  0.021000	 -0.036500	  0.995500	   -0.150000	    0.070000	    0.040000	    9.554688
    0.5559	  0.022000	 -0.037000	  0.995000	   -0.220000	   -0.040000	   -0.090000	    9.550781
    0.5659	  0.021000	 -0.035500	  0.996000	   -0.270000	   -0.120000	    0.080000	    9.546875
    0.5759	  0.021500	 -0.036000	  0.997000	   -0.280000	   -0.130000	    0.070000	    9.546875
    0.5859	  0.021000	 -0.036500	  0.995000	   -0.260000	   -0.140000	    0.030000	    9.546875
    0.5959	  0.021000	 -0.035500	  0.996500	   -0.200000	    0.100000	    0.010000	    9.539063
    0.6060	  0.021000	 -0.036000	  0.996000	   -0.210000	   -0.010000	   -0.020000	    9.542969
    0.6162	  0.020000	 -0.035500	  0.995500	   -0.420000	   -0.170000	    0.090000	    9.542969
    0.6260	  0.020000	 -0.035000	  0.996500	   -0.280000	    0.000000	    0.030000	    9.546875
    0.6359	  0.020000	 -0.036000	  0.996000	   -0.370000	   -0.030000	   -0.040000	    9.539063
    0.6459	  0.019500	 -0.035500	  0.997000	   -0.230000	    0.040000	   -0.060000	    9.531250
    0.6559	  0.019500	 -0.036000	  0.996500	   -0.370000	   -0.190000	    0.000000	    9.535156
    0.6660	  0.018500	 -0.037000	  0.995500	   -0.310000	   -0.040000	    0.010000	    9.542969
    0.6759	  0.019000	 -0.035500	  0.997000	   -0.200000	   -0.090000	    0.020000	    9.554688
    0.6859	  0.020000	 -0.036000	  0.996500	   -0.300000	   -0.040000	   -0.020000	    9.542969
    0.6962	  0.018500	 -0.036000	  0.996000	   -0.300000	   -0.060000	   -0.020000	    9.542969
    0.7060	  0.019500	 -0.036500	  0.996500	   -0.290000	    0.000000	    0.040000	    9.539063
    0.7160	  0.019000	 -0.037500	  0.996000	   -0.310000	   -0.150000	    0.090000	    9.539063
    0.7260	  0.018500	 -0.036500	  0.996000	   -0.230000	   -0.060000	   -0.060000	    9.523438
    0.7360	  0.018500	 -0.036500	  0.995500	   -0.290000	   -0.040000	   -0.040000	    9.507813
    0.7460	  0.019000	 -0.036000	  0.997000	   -0.260000	   -0.090000	   -0.030000	    9.531250
    0.7560	  0.018500	 -0.037500	  0.996000	   -0.180000	   -0.120000	    0.000000	    9.558594
    0.7660	  0.020000	 -0.035500	  0.996500	   -0.320000	   -0.100000	   -0.060000	    9.546875
    0.7762	  0.020000	 -0.036000	  0.997000	   -0.270000	   -0.140000	    0.010000	    9.554688
    0.7860	  0.019500	 -0.036000	  0.995000	   -0.410000	   -0.250000	   -0.030000	    9.546875
    0.7960	  0.020000	 -0.036500	  0.995500	   -0.260000	   -0.170000	   -0.040000	    9.539063
    0.8060	  0.020500	 -0.036500	  0.995500	   -0.220000	   -0.090000	    0.090000	    9.542969
    0.8160	  0.021000	 -0.035500	  0.995500	   -0.230000	   -0.060000	    0.000000	    9.535156
    0.8260	  0.021500	 -0.036000	  0.995000	   -0.220000	   -0.080000	   -0.040000	    9.527344
    0.8360	  0.021500	 -0.036500	  0.996000	   -0.320000	   -0.070000	    0.070000	    9.527344
    0.8460	  0.022000	 -0.035500	  0.995000	   -0.290000	   -0.140000	    0.060000	    9.566406
    0.8562	  0.022000	 -0.035500	  0.995500	   -0.230000	   -0.050000	    0.030000	    9.582031
    0.8660	  0.023000	 -0.035000	  0.996500	   -0.320000	   -0.110000	    0.080000	    9.550781
    0.8760	  0.024000	 -0.037000	  0.996000	   -0.300000	   -0.050000	    0.010000	    9.527344
    0.8860	  0.023000	 -0.036500	  0.996000	   -0.190000	   -0.090000	    0.000000	    9.523438
    0.8960	  0.023000	 -0.036500	  0.995500	   -0.270000	   -0.040000	    0.090000	    9.523438
    0.9060	  0.023500	 -0.037000	  0.996500	   -0.320000	   -0.090000	    0.050000	    9.535156
    0.9160	  0.024000	 -0.036000	  0.997500	   -0.230000	   -0.040000	    0.050000	    9.531250
    0.9260	  0.023500	 -0.036000	  0.997500	   -0.260000	   -0.090000	    0.020000	    9.523438
    0.9362	  0.023500	 -0.034500	  0.996000	   -0.280000	   -0.110000	    0.040000	    9.527344
    0.9460	  0.023500	 -0.036500	  0.995500	   -0.410000	    0.000000	   -0.030000	    9.550781
    0.9563	  0.022000	 -0.036000	  0.995000	   -0.240000	   -0.150000	    0.030000	    9.539063
    0.9660	  0.023000	 -0.036500	  0.996000	   -0.210000	   -0.060000	    0.000000	    9.531250
    0.9760	  0.022500	 -0.036500	  0.995500	   -0.220000	   -0.080000	    0.100000	    9.550781
    0.9860	  0.022000	 -0.035500	  0.996500	   -0.220000	   -0.080000	    0.000000	    9.535156
    0.9960	  0.021500	 -0.037500	  0.995000	   -0.330000	   -0.080000	   -0.050000	    9.523438
    1.0060	  0.021500	 -0.036500	  0.996000	   -0.350000	   -0.160000	    0.020000	    9.507813
    1.0162	  0.020000	 -0.035500	  0.995500	   -0.300000	   -0.010000	    0.050000	    9.535156
    1.0260	  0.021000	 -0.036500	  0.995000	   -0.280000	   -0.070000	    0.000000	    9.535156
    1.0360	  0.020000	 -0.036500	  0.996000	   -0.210000	   -0.020000	    0.030000	    9.535156
    1.0460	  0.019000	 -0.037000	  0.995500	   -0.240000	   -0.070000	   -0.040000	    9.546875
    1.0560	  0.019000	 -0.037500	  0.995000	   -0.290000	   -0.050000	   -0.080000	    9.546875
    1.0660	  0.019000	 -0.037500	  0.996000	   -0.240000	   -0.120000	   -0.010000	    9.566406
    1.0760	  0.018500	 -0.037000	  0.995000	   -0.180000	   -0.100000	    0.030000	    9.546875
    1.0860	  0.019500	 -0.036500	  0.994500	   -0.280000	   -0.050000	    0.030000	    9.527344
    1.0962	  0.020000	 -0.036000	  0.995500	   -0.300000	   -0.010000	    0.000000	    9.519531
    1.1060	  0.018500	 -0.036000	  0.996000	   -0.150000	   -0.110000	    0.040000	    9.539063
    1.1160	  0.018500	 -0.035500	  0.997000	   -0.140000	   -0.120000	    0.010000	    9.531250
    1.1260	  0.019500	 -0.037500	  0.996000	   -0.220000	   -0.120000	   -0.020000	    9.511719
    1.1360	  0.019000	 -0.035500	  0.996500	   -0.360000	   -0.130000	    0.050000	    9.535156
    1.1460	  0.019500	 -0.036000	  0.997500	   -0.240000	   -0.220000	   -0.030000	    9.554688
    1.1560	  0.020000	 -0.036500	  0.997000	   -0.310000	   -0.090000	    0.010000	    9.531250
    1.1660	  0.020000	 -0.037000	  0.997000	   -0.210000	   -0.010000	   -0.020000	    9.531250
    1.1762	  0.021500	 -0.037000	  0.996500	   -0.220000	   -0.060000	   -0.020000	    9.519531
    1.1860	  0.021000	 -0.036500	  0.996500	   -0.280000	   -0.030000	    0.040000	    9.539063
    1.1960	  0.021000	 -0.036500	  0.996500	   -0.290000	   -0.120000	   -0.070000	    9.546875
    1.2060	  0.021000	 -0.037000	  0.997500	   -0.300000	   -0.090000	   -0.010000	    9.531250
    1.2160	  0.021000	 -0.036500	  0.996500	   -0.230000	   -0.040000	   -0.060000	    9.515625
    1.2260	  0.022000	 -0.036500	  0.995000	   -0.220000	   -0.120000	   -0.090000	    9.527344
    1.2360	  0.022500	 -0.036500	  0.995500	   -0.260000	   -0.100000	   -0.040000	    9.523438
    1.2460	  0.021500	 -0.037000	  0.994500	   -0.340000	   -0.080000	   -0.020000	    9.527344
    1.2562	  0.021500	 -0.035000	  0.996000	   -0.430000	   -0.060000	    0.020000	    9.539063
    1.2660	  0.022500	 -0.037000	  0.996500	   -0.370000	   -0.190000	    0.020000	    9.531250
    1.2760	  0.022000	 -0.036500	  0.995500	   -0.240000	   -0.030000	    0.040000	    9.539063
    1.2860	  0.022000	 -0.036000	  0.995500	   -0.310000	   -0.040000	   -0.030000	    9.542969
    1.2960	  0.022000	 -0.036000	  0.996000	   -0.280000	   -0.030000	   -0.040000	    9.550781
    1.3060	  0.022000	 -0.036500	  0.996000	   -0.270000	   -0.130000	    0.000000	    9.566406
    1.3160	  0.021500	 -0.036500	  0.996500	   -0.250000	    0.000000	    0.050000	    9.554688
    1.3260	  0.022500	 -0.036000	  0.996500	   -0.130000	   -0.100000	   -0.110000	    9.570313
    1.3362	  0.023000	 -0.037500	  0.997000	   -0.270000	   -0.060000	   -0.020000	    9.558594
    1.3460	  0.021500	 -0.036000	  0.995000	   -0.160000	   -0.170000	   -0.050000	    9.527344
    1.3560	  0.022500	 -0.037500	  0.996000	   -0.260000	   -0.050000	   -0.010000	    9.527344
    1.3660	  0.022000	 -0.036000	  0.994500	   -0.200000	    0.020000	   -0.020000	    9.523438
    1.3760	  0.022500	 -0.036500	  0.995500	   -0.280000	   -0.090000	   -0.020000	    9.523438
    1.3860	  0.022000	 -0.037000	  0.996000	   -0.290000	   -0.150000	    0.020000	    9.539063
    1.3960	  0.022000	 -0.037000	  0.996500	   -0.170000	   -0.080000	    0.000000	    9.515625
    1.4060	  0.022000	 -0.037000	  0.995000	   -0.280000	   -0.150000	    0.080000	    9.523438
    1.4162	  0.022000	 -0.036500	  0.995500	   -0.200000	   -0.070000	   -0.060000	    9.542969
    1.4260	  0.022500	 -0.036500	  0.995500	   -0.330000	   -0.020000	    0.040000	    9.550781
    1.4360	  0.021500	 -0.036500	  0.995500	   -0.280000	   -0.020000	    0.010000	    9.550781
    1.4460	  0.021500	 -0.037000	  0.996500	   -0.240000	   -0.100000	    0.040000	    9.539063
    1.4560	  0.021500	 -0.036000	  0.995000	   -0.170000	    0.000000	    0.050000	    9.558594
    1.4660	  0.020500	 -0.036000	  0.997500	   -0.250000	   -0.040000	   -0.050000	    9.546875
    1.4760	  0.021000	 -0.036000	  0.996500	   -0.100000	   -0.040000	   -0.030000	    9.550781
    1.4860	  0.020500	 -0.035000	  0.996000	   -0.350000	   -0.140000	   -0.040000	    9.562500
    1.4962	  0.020000	 -0.036000	  0.996500	   -0.310000	   -0.110000	   -0.010000	    9.535156
    1.5060	  0.020000	 -0.036000	  0.997500	   -0.330000	   -0.150000	    0.090000	    9.531250
    1.5160	  0.020500	 -0.036000	  0.996000	   -0.300000	   -0.140000	   -0.100000	    9.542969
    1.5260	  0.019500	 -0.035000	  0.995000	   -0.290000	   -0.040000	    0.000000	    9.546875
    1.5360	  0.019500	 -0.035500	  0.996000	   -0.280000	   -0.090000	   -0.040000	    9.554688
    1.5460	  0.019500	 -0.036500	  0.996500	   -0.240000	   -0.250000	    0.020000	    9.542969
    1.5560	  0.019000	 -0.036000	  0.995000	   -0.160000	   -0.160000	   -0.170000	    9.550781
    1.5660	  0.020000	 -0.036000	  0.995500	   -0.240000	   -0.130000	    0.120000	    9.550781
    1.5762	  0.019500	 -0.036000	  0.996000	   -0.210000	   -0.050000	    0.100000	    9.558594
    1.5860	  0.020000	 -0.036500	  0.995500	   -0.170000	   -0.100000	   -0.020000	    9.554688
    1.5960	  0.020000	 -0.037000	  0.995000	   -0.320000	   -0.040000	   -0.010000	    9.523438
    1.6060	  0.020000	 -0.037500	  0.994500	   -0.290000	   -0.080000	    0.010000	    9.523438
    1.6160	  0.020500	 -0.036000	  0.995500	   -0.220000	   -0.140000	   -0.040000	    9.511719
    1.6260	  0.020500	 -0.037000	  0.994500	   -0.230000	   -0.090000	    0.020000	    9.527344
    1.6360	  0.021500	 -0.036500	  0.994500	   -0.250000	   -0.120000	    0.100000	    9.535156
    1.6460	  0.021000	 -0.036000	  0.996000	   -0.270000	   -0.110000	   -0.150000	    9.550781
    1.6562	  0.020500	 -0.037500	  0.995500	   -0.260000	   -0.090000	    0.010000	    9.531250
    1.6660	  0.021500	 -0.037500	  0.997000	   -0.240000	   -0.160000	    0.000000	    9.554688
    1.6760	  0.021500	 -0.036000	  0.995500	   -0.330000	   -0.140000	    0.030000	    9.554688
    1.6860	  0.022000	 -0.036000	  0.996500	   -0.210000	   -0.160000	   -0.080000	    9.527344
    1.6960	  0.021500	 -0.036500	  0.996500	   -0.170000	   -0.100000	   -0.060000	    9.535156
    1.7060	  0.021500	 -0.036500	  0.996500	   -0.250000	   -0.130000	    0.000000	    9.539063
    1.7160	  0.021500	 -0.037000	  0.996500	   -0.310000	   -0.210000	    0.060000	    9.535156
    1.7260	  0.022500	 -0.035500	  0.996500	   -0.270000	   -0.140000	    0.040000	    9.523438
    1.7362	  0.022500	 -0.037000	  0.996500	   -0.220000	   -0.090000	   -0.020000	    9.527344
    1.7460	  0.022000	 -0.037000	  0.996000	   -0.330000	   -0.030000	   -0.030000	    9.535156
    1.7560	  0.021500	 -0.037500	  0.996500	   -0.230000	   -0.060000	   -0.100000	    9.554688
    1.7660	  0.023000	 -0.036000	  0.996000	   -0.180000	   -0.160000	    0.030000	    9.531250
    1.7760	  0.022000	 -0.037000	  0.995500	   -0.230000	   -0.040000	    0.030000	    9.539063
    1.7860	  0.021500	 -0.036000	  0.997000	   -0.200000	   -0.090000	   -0.020000	    9.570313
    1.7960	  0.022500	 -0.036000	  0.996500	   -0.430000	   -0.120000	    0.030000	    9.542969
    1.8060	  0.022000	 -0.035500	  0.995000	   -0.200000	    0.020000	   -0.050000	    9.542969
    1.8162	  0.022000	 -0.036000	  0.996000	   -0.230000	    0.040000	   -0.050000	    9.546875
    1.8260	  0.021500	 -0.036500	  0.994000	   -0.370000	   -0.070000	   -0.010000	    9.531250
    1.8360	  0.021000	 -0.036000	  0.996000	   -0.270000	    0.090000	   -0.160000	    9.554688
    1.8460	  0.020000	 -0.036500	  0.997000	   -0.270000	   -0.050000	    0.150000	    9.535156
    1.8560	  0.021000	 -0.036000	  0.995000	   -0.190000	    0.100000	    0.030000	    9.531250
    1.8660	  0.021000	 -0.037500	  0.996000	   -0.260000	   -0.080000	    0.000000	    9.554688
    1.8760	  0.020500	 -0.037500	  0.995000	   -0.240000	   -0.100000	   -0.030000	    9.554688
    1.8860	  0.020500	 -0.036500	  0.995500	   -0.280000	   -0.140000	    0.030000	    9.542969
    1.8962	  0.020500	 -0.036500	  0.995000	   -0.280000	   -0.090000	   -0.010000	    9.523438
    1.9060	  0.020000	 -0.036000	  0.995500	   -0.190000	   -0.020000	    0.040000	    9.539063
    1.9160	  0.021000	 -0.035000	  0.995500	   -0.300000	    0.010000	   -0.070000	    9.566406
    1.9260	  0.020000	 -0.037500	  0.995500	   -0.210000	   -0.080000	   -0.010000	    9.542969
    1.9360	  0.020000	 -0.037000	  0.996500	   -0.310000	   -0.070000	   -0.050000	    9.535156
    1.9460	  0.020500	 -0.037500	  0.995000	   -0.270000	   -0.140000	    0.090000	    9.535156
    1.9564	  0.021000	 -0.037000	  0.996500	   -0.320000	    0.010000	   -0.030000	    9.550781
    1.9660	  0.021000	 -0.036500	  0.996000	   -0.250000	   -0.170000	   -0.040000	    9.558594
    1.9762	  0.020500	 -0.036000	  0.996000	   -0.190000	   -0.060000	    0.030000	    9.527344
    1.9860	  0.020500	 -0.037000	  0.995500	   -0.310000	   -0.080000	   -0.040000	    9.507813
    1.9960	  0.020000	 -0.037500	  0.995500	   -0.320000	   -0.100000	    0.010000	    9.542969
    2.0060	  0.019500	 -0.035500	  0.996000	   -0.170000	   -0.080000	    0.020000	    9.550781
    2.0160	  0.021000	 -0.036500	  0.996000	   -0.380000	   -0.020000	   -0.020000	    9.527344
    2.0260	  0.020500	 -0.036000	  0.996000	   -0.250000	   -0.060000	    0.010000	    9.542969
    2.0360	  0.020500	 -0.036500	  0.997000	   -0.250000	   -0.060000	    0.020000	    9.554688
    2.0460	  0.021000	 -0.036500	  0.996500	   -0.150000	   -0.120000	    0.110000	    9.550781
    2.0562	  0.020500	 -0.036000	  0.995000	   -0.250000	   -0.050000	    0.040000	    9.546875
    2.0660	  0.019500	 -0.035500	  0.995000	   -0.270000	   -0.170000	    0.060000	    9.546875
    2.0760	  0.021000	 -0.036000	  0.997000	   -0.090000	    0.010000	    0.050000	    9.550781
    2.0860	  0.021000	 -0.036000	  0.996000	   -0.240000	   -0.070000	   -0.010000	    9.546875
    2.0960	  0.020500	 -0.036500	  0.996500	   -0.220000	   -0.120000	   -0.010000	    9.535156
    2.1061	  0.021000	 -0.037000	  0.995000	   -0.270000	   -0.170000	    0.080000	    9.539063
    2.1160	  0.020500	 -0.036000	  0.996500	   -0.230000	   -0.040000	   -0.080000	    9.539063
    2.1260	  0.021000	 -0.037500	  0.996500	   -0.240000	   -0.010000	    0.070000	    9.519531
    2.1362	  0.021000	 -0.035500	  0.996500	   -0.260000	   -0.070000	   -0.030000	    9.527344
    2.1460	  0.021500	 -0.036500	  0.995500	   -0.240000	   -0.080000	   -0.060000	    9.503906
    2.1560	  0.021500	 -0.036000	  0.996000	   -0.160000	   -0.030000	    0.040000	    9.523438
    2.1660	  0.021500	 -0.036000	  0.995500	   -0.150000	   -0.060000	   -0.100000	    9.570313
    2.1760	  0.022000	 -0.037000	  0.993500	   -0.240000	   -0.130000	    0.020000	    9.554688
    2.1860	  0.021500	 -0.037500	  0.996500	   -0.320000	   -0.260000	    0.100000	    9.550781
    2.1961	  0.022000	 -0.037000	  0.995500	   -0.330000	   -0.050000	    0.010000	    9.554688
    2.2061	  0.021500	 -0.036500	  0.995000	   -0.320000	   -0.090000	   -0.030000	    9.546875
    2.2162	  0.021500	 -0.036500	  0.996000	   -0.280000	   -0.060000	   -0.030000	    9.550781
    2.2260	  0.021000	 -0.037500	  0.996500	   -0.250000	   -0.110000	   -0.070000	    9.527344
    2.2360	  0.021500	 -0.037000	  0.996000	   -0.250000	    0.050000	   -0.090000	    9.527344
    2.2460	  0.021500	 -0.036000	  0.998000	   -0.260000	   -0.090000	   -0.030000	    9.539063
    2.2560	  0.021000	 -0.036500	  0.996500	   -0.180000	    0.050000	    0.050000	    9.527344
    2.2660	  0.021000	 -0.037000	  0.996500	   -0.280000	   -0.030000	   -0.100000	    9.542969
    2.2760	  0.021500	 -0.037000	  0.997000	   -0.350000	   -0.060000	    0.010000	    9.542969
    2.2860	  0.021000	 -0.037000	  0.996500	   -0.280000	   -0.050000	   -0.080000	    9.558594
    2.2962	  0.021000	 -0.035500	  0.997000	   -0.230000	   -0.040000	    0.020000	    9.546875
    2.3061	  0.020000	 -0.036500	  0.995500	   -0.200000	   -0.050000	   -0.070000	    9.546875
    2.3160	  0.022000	 -0.036500	  0.996000	   -0.220000	   -0.060000	   -0.070000	    9.539063
    2.3260	  0.021000	 -0.036000	  0.995500	   -0.230000	   -0.020000	    0.010000	    9.542969
    2.3360	  0.021000	 -0.036500	  0.995500	   -0.270000	   -0.090000	   -0.050000	    9.539063
    2.3460	  0.020500	 -0.037500	  0.996500	   -0.290000	   -0.060000	    0.000000	    9.539063
    2.3560	  0.021000	 -0.036500	  0.995500	   -0.330000	   -0.130000	    0.010000	    9.550781
    2.3660	  0.021500	 -0.036500	  0.996500	   -0.360000	   -0.110000	    0.070000	    9.558594
    2.3762	  0.021000	 -0.036000	  0.997500	   -0.250000	   -0.120000	    0.040000	    9.531250
    2.3860	  0.021000	 -0.036500	  0.994500	   -0.220000	   -0.080000	    0.030000	    9.554688
    2.3960	  0.021000	 -0.036000	  0.994500	   -0.270000	   -0.130000	    0.020000	    9.558594
    2.4061	  0.021500	 -0.037000	  0.995000	   -0.280000	   -0.090000	    0.040000	    9.550781
    2.4160	  0.020500	 -0.037000	  0.996000	   -0.220000	   -0.050000	   -0.040000	    9.562500
    2.4260	  0.021500	 -0.036500	  0.996000	   -0.190000	   -0.120000	   -0.020000	    9.531250
    2.4360	  0.020500	 -0.037000	  0.995500	   -0.290000	   -0.140000	   -0.040000	    9.531250
    2.4460	  0.021500	 -0.036000	  0.996000	   -0.210000	   -0.060000	   -0.010000	    9.531250
    2.4562	  0.021000	 -0.037000	  0.996000	   -0.250000	   -0.130000	   -0.070000	    9.539063
    2.4660	  0.020500	 -0.037500	  0.995500	   -0.290000	    0.000000	    0.030000	    9.546875
    2.4760	  0.020500	 -0.036000	  0.996000	   -0.270000	    0.000000	    0.050000	    9.562500
    2.4860	  0.021000	 -0.035500	  0.997000	   -0.250000	    0.010000	    0.000000	    9.542969
    2.4960	  0.020500	 -0.036500	  0.997500	   -0.260000	   -0.090000	   -0.040000	    9.539063
    2.5061	  0.021500	 -0.038000	  0.997000	   -0.270000	   -0.100000	   -0.030000	    9.523438
    2.5160	  0.021000	 -0.035500	  0.997000	   -0.290000	   -0.050000	    0.000000	    9.546875
    2.5260	  0.020500	 -0.036500	  0.996000	   -0.270000	   -0.110000	    0.020000	    9.554688
    2.5362	  0.020000	 -0.035500	  0.997000	   -0.210000	   -0.040000	    0.000000	    9.535156
    2.5460	  0.020500	 -0.036000	  0.997500	   -0.310000	   -0.040000	    0.140000	    9.550781
    2.5560	  0.020000	 -0.036500	  0.996500	   -0.170000	   -0.130000	    0.050000	    9.539063
    2.5660	  0.021000	 -0.036500	  0.996000	   -0.360000	   -0.060000	    0.110000	    9.519531
    2.5760	  0.021000	 -0.037500	  0.996500	   -0.220000	   -0.130000	    0.010000	    9.535156
    2.5860	  0.020500	 -0.036000	  0.995500	   -0.180000	   -0.120000	   -0.080000	    9.531250
    2.5960	  0.021500	 -0.037500	  0.996000	   -0.270000	   -0.130000	   -0.020000	    9.550781
    2.6061	  0.021000	 -0.036000	  0.996500	   -0.100000	   -0.200000	   -0.050000	    9.550781
    2.6162	  0.021500	 -0.036500	  0.995000	   -0.170000	   -0.070000	   -0.050000	    9.542969
    2.6260	  0.021000	 -0.036000	  0.995500	   -0.240000	   -0.090000	    0.030000	    9.531250
    2.6360	  0.021500	 -0.036500	  0.995500	   -0.190000	   -0.160000	    0.010000	    9.511719
    2.6460	  0.020000	 -0.036000	  0.995500	   -0.300000	   -0.110000	   -0.020000	    9.535156
    2.6560	  0.022000	 -0.037000	  0.995000	   -0.250000	   -0.130000	    0.060000	    9.550781
    2.6660	  0.021500	 -0.036000	  0.996000	   -0.240000	   -0.040000	   -0.040000	    9.554688
    2.6760	  0.022000	 -0.036000	  0.996000	   -0.310000	   -0.030000	   -0.040000	    9.527344
    2.6860	  0.021500	 -0.036000	  0.995500	   -0.400000	    0.010000	   -0.070000	    9.519531
    2.6962	  0.022000	 -0.036000	  0.995000	   -0.270000	   -0.190000	    0.010000	    9.535156
    2.7061	  0.021500	 -0.037000	  0.996500	   -0.250000	   -0.010000	   -0.110000	    9.527344
    2.7160	  0.022500	 -0.036500	  0.996000	   -0.210000	   -0.080000	    0.080000	    9.539063
    2.7260	  0.021000	 -0.036500	  0.994500	   -0.230000	   -0.150000	   -0.050000	    9.542969
    2.7360	  0.021000	 -0.036000	  0.997500	   -0.260000	   -0.180000	    0.050000	    9.531250
    2.7460	  0.020500	 -0.036500	  0.996000	   -0.410000	   -0.070000	    0.040000	    9.542969
    2.7560	  0.021500	 -0.036000	  0.997500	   -0.260000	   -0.060000	    0.030000	    9.550781
    2.7660	  0.022000	 -0.036500	  0.996500	   -0.150000	   -0.040000	   -0.010000	    9.535156
    2.7762	  0.021500	 -0.036000	  0.995500	   -0.340000	   -0.160000	   -0.040000	    9.535156
    2.7860	  0.020500	 -0.037000	  0.997500	   -0.210000	   -0.010000	    0.040000	    9.523438
    2.7960	  0.021000	 -0.036000	  0.996500	   -0.340000	   -0.120000	    0.020000	    9.527344
    2.8061	  0.021000	 -0.037500	  0.996500	   -0.190000	   -0.110000	    0.060000	    9.550781
    2.8160	  0.021000	 -0.036500	  0.996500	   -0.320000	   -0.120000	    0.060000	    9.546875
    2.8260	  0.020500	 -0.036500	  0.996500	   -0.270000	   -0.210000	    0.010000	    9.566406
    2.8360	  0.020000	 -0.036500	  0.997000	   -0.210000	   -0.100000	   -0.040000	    9.554688
    2.8460	  0.021500	 -0.036000	  0.995500	   -0.190000	   -0.070000	    0.060000	    9.527344
    2.8563	  0.021000	 -0.036500	  0.996500	   -0.260000	   -0.070000	    0.090000	    9.523438
    2.8661	  0.021000	 -0.036000	  0.996500	   -0.180000	   -0.020000	   -0.010000	    9.531250
    2.8760	  0.020500	 -0.036500	  0.995500	   -0.210000	    0.000000	    0.010000	    9.542969
    2.8860	  0.020000	 -0.037000	  0.994000	   -0.310000	    0.010000	    0.110000	    9.546875
    2.8960	  0.020000	 -0.036500	  0.995500	   -0.350000	    0.010000	    0.040000	    9.554688
    2.9060	  0.022500	 -0.037500	  0.995500	   -0.200000	   -0.050000	    0.020000	    9.550781
    2.9160	  0.021000	 -0.037000	  0.995000	   -0.320000	   -0.040000	   -0.070000	    9.554688
    2.9260	  0.021500	 -0.036000	  0.994500	   -0.240000	   -0.190000	    0.070000	    9.570313
    2.9362	  0.021500	 -0.036000	  0.995500	   -0.250000	   -0.140000	    0.020000	    9.554688
    2.9460	  0.022000	 -0.037500	  0.995500	   -0.410000	   -0.160000	    0.050000	    9.542969
    2.9564	  0.021500	 -0.035500	  0.995000	   -0.200000	   -0.080000	   -0.020000	    9.570313
    2.9660	  0.020500	 -0.036500	  0.994500	   -0.320000	   -0.110000	   -0.030000	    9.582031
    2.9761	  0.021500	 -0.036000	  0.996500	   -0.180000	   -0.070000	    0.100000	    9.570313
    2.9860	  0.021500	 -0.038000	  0.995500	   -0.340000	   -0.160000	    0.100000	    9.539063
    2.9960	  0.021000	 -0.036500	  0.996500	   -0.370000	   -0.080000	   -0.030000	    9.546875
    3.0061	  0.021500	 -0.038000	  0.995500	   -0.240000	   -0.120000	    0.040000	    9.546875
    3.0163	  0.021500	 -0.036500	  0.995000	   -0.330000	   -0.020000	    0.080000	    9.550781
    3.0260	  0.021500	 -0.036000	  0.995500	   -0.260000	   -0.100000	    0.070000	    9.535156
    3.0361	  0.022000	 -0.036000	  0.996000	   -0.240000	   -0.090000	   -0.010000	    9.550781
    3.0461	  0.020000	 -0.036000	  0.997000	   -0.350000	   -0.130000	   -0.010000	    9.550781
    3.0561	  0.020000	 -0.036000	  0.996500	   -0.290000	   -0.170000	   -0.030000	    9.550781
    3.0661	  0.020000	 -0.036000	  0.996500	   -0.300000	   -0.120000	    0.020000	    9.531250
    3.0760	  0.020000	 -0.036000	  0.997000	   -0.320000	   -0.080000	   -0.080000	    9.523438
    3.0860	  0.020000	 -0.037000	  0.996500	   -0.260000	   -0.080000	    0.110000	    9.558594
    3.0963	  0.020500	 -0.034500	  0.996500	   -0.250000	   -0.080000	   -0.050000	    9.558594
    3.1061	  0.020500	 -0.036500	  0.995500	   -0.280000	   -0.020000	    0.040000	    9.558594
    3.1160	  0.020500	 -0.036500	  0.995500	   -0.270000	   -0.090000	   -0.030000	    9.554688
    3.1261	  0.020500	 -0.036500	  0.995500	   -0.260000	   -0.080000	    0.000000	    9.558594
    3.1360	  0.021000	 -0.036500	  0.995500	   -0.320000	   -0.160000	    0.010000	    9.546875
    3.1460	  0.021500	 -0.036000	  0.995500	   -0.250000	   -0.020000	   -0.010000	    9.535156
    3.1561	  0.022000	 -0.037000	  0.995500	   -0.250000	   -0.090000	   -0.010000	    9.554688
    3.1660	  0.022000	 -0.036000	  0.997000	   -0.260000	   -0.060000	   -0.050000	    9.542969
    3.1763	  0.021000	 -0.037000	  0.996500	   -0.220000	   -0.100000	    0.090000	    9.542969
    3.1861	  0.023000	 -0.037500	  0.995500	   -0.250000	   -0.230000	    0.020000	    9.531250
    3.1960	  0.022000	 -0.037500	  0.996500	   -0.320000	   -0.130000	    0.020000	    9.535156
    3.2061	  0.022000	 -0.038000	  0.997000	   -0.370000	   -0.080000	   -0.080000	    9.519531
    3.2161	  0.022500	 -0.036500	  0.996500	   -0.290000	   -0.180000	    0.050000	    9.554688
    3.2260	  0.021500	 -0.037500	  0.997000	   -0.200000	   -0.050000	    0.040000	    9.558594
    3.2361	  0.021500	 -0.036500	  0.997000	   -0.240000	    0.000000	    0.020000	    9.527344
    3.2461	  0.022500	 -0.036500	  0.996000	   -0.250000	   -0.050000	   -0.070000	    9.531250
    3.2563	  0.021000	 -0.037500	  0.994000	   -0.340000	   -0.050000	   -0.040000	    9.535156
    3.2661	  0.021000	 -0.037000	  0.995500	   -0.330000	   -0.020000	    0.040000	    9.539063
    3.2761	  0.021000	 -0.036000	  0.995500	   -0.310000	   -0.070000	    0.040000	    9.519531
    3.2860	  0.021000	 -0.036000	  0.995000	   -0.340000	   -0.020000	    0.060000	    9.527344
    3.2961	  0.020500	 -0.036500	  0.995000	   -0.330000	   -0.120000	    0.060000	    9.550781
    3.3061	  0.020500	 -0.035000	  0.995500	   -0.150000	   -0.020000	   -0.060000	    9.539063
    3.3161	  0.020000	 -0.035500	  0.994000	   -0.310000	   -0.010000	   -0.010000	    9.511719
    3.3261	  0.020000	 -0.035500	  0.995500	   -0.300000	   -0.050000	   -0.100000	    9.531250
    3.3363	  0.019500	 -0.036000	  0.996500	   -0.150000	   -0.030000	   -0.070000	    9.558594
    3.3461	  0.020000	 -0.035500	  0.996000	   -0.340000	   -0.100000	    0.000000	    9.558594
    3.3561	  0.021000	 -0.036000	  0.997000	   -0.310000	    0.060000	    0.040000	    9.562500
    3.3661	  0.020000	 -0.037000	  0.996500	   -0.180000	   -0.120000	    0.040000	    9.546875
    3.3761	  0.020500	 -0.037000	  0.996000	   -0.360000	   -0.120000	    0.050000	    9.535156
    3.3861	  0.020500	 -0.035500	  0.996500	   -0.340000	   -0.100000	    0.040000	    9.531250
    3.3961	  0.022000	 -0.036500	  0.994500	   -0.260000	    0.030000	   -0.030000	    9.546875
    3.4061	  0.021000	 -0.035500	  0.997000	   -0.330000	   -0.100000	    0.050000	    9.550781
    3.4163	  0.021500	 -0.036500	  0.996500	   -0.350000	   -0.130000	    0.010000	    9.558594
    3.4261	  0.020500	 -0.036500	  0.996000	   -0.260000	   -0.120000	    0.130000	    9.546875
    3.4361	  0.021500	 -0.037000	  0.996000	   -0.200000	   -0.100000	   -0.030000	    9.535156
    3.4461	  0.021000	 -0.038000	  0.997500	   -0.340000	   -0.080000	   -0.100000	    9.535156
    3.4561	  0.020500	 -0.037500	  0.998500	   -0.290000	   -0.110000	    0.020000	    9.546875
    3.4661	  0.020500	 -0.037500	  0.997500	   -0.290000	   -0.140000	    0.010000	    9.554688
    3.4761	  0.021000	 -0.037000	  0.996500	   -0.280000	   -0.040000	    0.020000	    9.535156
    3.4861	  0.021000	 -0.037500	  0.998500	   -0.290000	   -0.190000	    0.030000	    9.562500
    3.4963	  0.021000	 -0.037000	  0.997000	   -0.280000	   -0.120000	    0.090000	    9.558594
    3.5061	  0.021000	 -0.037000	  0.997000	   -0.180000	   -0.110000	   -0.030000	    9.542969
    3.5161	  0.021500	 -0.037500	  0.995500	   -0.250000	   -0.060000	    0.050000	    9.550781
    3.5261	  0.020000	 -0.037000	  0.996000	   -0.360000	   -0.050000	    0.020000	    9.550781
    3.5361	  0.021500	 -0.036500	  0.996000	   -0.350000	   -0.090000	   -0.030000	    9.535156
    3.5461	  0.020500	 -0.036500	  0.995500	   -0.320000	   -0.140000	    0.010000	    9.546875
    3.5561	  0.020500	 -0.036500	  0.996000	   -0.260000	   -0.130000	    0.020000	    9.539063
    3.5661	  0.021000	 -0.036000	  0.995000	   -0.260000	   -0.150000	    0.020000	    9.535156
    3.5763	  0.022000	 -0.036000	  0.994500	   -0.250000	   -0.030000	    0.030000	    9.566406
    3.5861	  0.021000	 -0.036000	  0.995000	   -0.240000	   -0.130000	   -0.030000	    9.550781
    3.5961	  0.021000	 -0.035500	  0.995500	   -0.180000	   -0.120000	    0.020000	    9.554688
    3.6061	  0.022000	 -0.034500	  0.994000	   -0.290000	   -0.140000	   -0.050000	    9.562500
    3.6161	  0.022000	 -0.035500	  0.996000	   -0.300000	   -0.110000	    0.100000	    9.542969
    3.6261	  0.021500	 -0.036500	  0.994500	   -0.320000	   -0.140000	    0.120000	    9.511719
    3.6361	  0.021500	 -0.036500	  0.995500	   -0.300000	    0.010000	   -0.080000	    9.523438
    3.6461	  0.022000	 -0.034500	  0.995500	   -0.340000	   -0.170000	   -0.040000	    9.519531
    3.6563	  0.022500	 -0.036500	  0.995500	   -0.350000	   -0.030000	    0.060000	    9.531250
    3.6661	  0.022500	 -0.036500	  0.995000	   -0.290000	   -0.130000	   -0.090000	    9.539063
    3.6761	  0.022000	 -0.036000	  0.995500	   -0.250000	   -0.140000	   -0.060000	    9.527344
    3.6861	  0.023000	 -0.037000	  0.995000	   -0.190000	    0.040000	   -0.010000	    9.523438
    3.6961	  0.022000	 -0.036500	  0.995500	   -0.310000	   -0.130000	    0.010000	    9.562500
    3.7061	  0.021500	 -0.037000	  0.996000	   -0.220000	   -0.160000	    0.000000	    9.562500
    3.7161	  0.022000	 -0.037000	  0.995000	   -0.340000	   -0.130000	   -0.010000	    9.535156
    3.7261	  0.021500	 -0.036500	  0.996000	   -0.300000	   -0.090000	   -0.050000	    9.542969
    3.7363	  0.022000	 -0.036000	  0.996000	   -0.240000	   -0.030000	    0.060000	    9.562500
    3.7461	  0.021000	 -0.036500	  0.995500	   -0.430000	    0.000000	   -0.080000	    9.542969
    3.7561	  0.021000	 -0.037500	  0.996000	   -0.310000	   -0.040000	    0.000000	    9.535156
    3.7661	  0.020000	 -0.037500	  0.996500	   -0.350000	   -0.100000	    0.010000	    9.507813
    3.7761	  0.019500	 -0.035500	  0.996500	   -0.350000	   -0.090000	    0.110000	    9.542969
    3.7861	  0.020000	 -0.037500	  0.996500	   -0.300000	   -0.090000	    0.060000	    9.539063
    3.7961	  0.019000	 -0.037500	  0.997000	   -0.320000	   -0.040000	   -0.110000	    9.546875
    3.8061	  0.019000	 -0.037000	  0.996500	   -0.240000	   -0.090000	   -0.060000	    9.542969
    3.8163	  0.019500	 -0.036500	  0.998000	   -0.300000	   -0.050000	    0.050000	    9.527344
    3.8261	  0.020000	 -0.036500	  0.997000	   -0.280000	    0.000000	   -0.010000	    9.539063
    3.8361	  0.019500	 -0.036500	  0.996500	   -0.230000	   -0.150000	   -0.030000	    9.531250
    3.8461	  0.020000	 -0.036500	  0.996000	   -0.290000	   -0.090000	    0.050000	    9.523438
    3.8561	  0.020000	 -0.035000	  0.994000	   -0.370000	   -0.180000	   -0.100000	    9.542969
    3.8661	  0.019500	 -0.037000	  0.996500	   -0.350000	   -0.110000	    0.050000	    9.554688
    3.8761	  0.020500	 -0.035500	  0.995500	   -0.300000	   -0.110000	    0.080000	    9.539063
    3.8861	  0.020500	 -0.036000	  0.995500	   -0.350000	   -0.060000	    0.010000	    9.531250
    3.8963	  0.020500	 -0.036500	  0.994500	   -0.290000	   -0.010000	   -0.030000	    9.546875
    3.9061	  0.020500	 -0.037000	  0.996000	   -0.310000	   -0.130000	    0.020000	    9.546875
    3.9161	  0.021000	 -0.036500	  0.995500	   -0.210000	   -0.040000	   -0.020000	    9.519531
    3.9261	  0.021000	 -0.035500	  0.994500	   -0.260000	   -0.120000	    0.010000	    9.523438
    3.9361	  0.022500	 -0.035500	  0.995000	   -0.340000	   -0.110000	   -0.030000	    9.546875
    3.9461	  0.021500	 -0.035500	  0.995000	   -0.170000	   -0.050000	    0.090000	    9.574219
    3.9565	  0.021000	 -0.036000	  0.996000	   -0.300000	   -0.120000	   -0.110000	    9.558594
    3.9661	  0.021000	 -0.035500	  0.995000	   -0.290000	   -0.110000	    0.020000	    9.523438
    3.9763	  0.021500	 -0.036500	  0.996000	   -0.210000	   -0.090000	    0.060000	    9.523438
    3.9861	  0.022000	 -0.037500	  0.996500	   -0.300000	   -0.150000	    0.140000	    9.550781
    3.9961	  0.021000	 -0.036500	  0.996500	   -0.280000	   -0.060000	    0.010000	    9.546875
    4.0061	  0.021500	 -0.037500	  0.996500	   -0.300000	   -0.020000	   -0.050000	    9.539063
    4.0161	  0.021500	 -0.037000	  0.997000	   -0.360000	   -0.140000	    0.090000	    9.578125
    4.0261	  0.021500	 -0.036000	  0.996500	   -0.200000	   -0.180000	   -0.100000	    9.558594
    4.0362	  0.022000	 -0.037000	  0.997000	   -0.260000	   -0.120000	    0.080000	    9.570313
    4.0461	  0.020500	 -0.037000	  0.996500	   -0.270000	   -0.060000	   -0.090000	    9.539063
    4.0563	  0.020500	 -0.037000	  0.996000	   -0.300000	   -0.040000	   -0.060000	    9.539063
    4.0661	  0.020500	 -0.037500	  0.996000	   -0.200000	   -0.200000	    0.080000	    9.558594
    4.0761	  0.021000	 -0.036500	  0.995000	   -0.260000	   -0.060000	    0.110000	    9.558594
    4.0861	  0.021000	 -0.036000	  0.995000	   -0.230000	   -0.020000	   -0.020000	    9.539063
    4.0961	  0.020500	 -0.036500	  0.995500	   -0.210000	   -0.040000	   -0.030000	    9.535156
    4.1061	  0.021000	 -0.037500	  0.995500	   -0.250000	   -0.110000	   -0.020000	    9.535156
    4.1161	  0.022000	 -0.036500	  0.995000	   -0.320000	   -0.090000	    0.010000	    9.546875
    4.1261	  0.021000	 -0.036500	  0.995500	   -0.290000	   -0.040000	    0.020000	    9.558594
    4.1363	  0.021500	 -0.035500	  0.995000	   -0.250000	   -0.030000	   -0.010000	    9.562500
    4.1461	  0.022000	 -0.036500	  0.996500	   -0.230000	   -0.020000	    0.000000	    9.542969
    4.1561	  0.021500	 -0.036000	  0.995500	   -0.190000	   -0.050000	   -0.110000	    9.562500
    4.1661	  0.022000	 -0.035500	  0.995000	   -0.290000	    0.020000	   -0.040000	    9.531250
    4.1761	  0.021000	 -0.035500	  0.995500	   -0.230000	   -0.070000	    0.040000	    9.523438
    4.1861	  0.021000	 -0.036000	  0.994500	   -0.190000	    0.020000	   -0.080000	    9.527344
    4.1961	  0.021000	 -0.035500	  0.996000	   -0.250000	   -0.140000	    0.120000	    9.542969
    4.2061	  0.021000	 -0.036000	  0.995000	   -0.230000	   -0.030000	   -0.100000	    9.535156
    4.2163	  0.020500	 -0.036000	  0.995500	   -0.160000	   -0.110000	   -0.070000	    9.550781
    4.2261	  0.021000	 -0.036000	  0.994000	   -0.230000	   -0.200000	   -0.090000	    9.566406
    4.2361	  0.020000	 -0.036000	  0.996000	   -0.250000	   -0.040000	   -0.050000	    9.546875
    4.2461	  0.020500	 -0.037500	  0.995000	   -0.260000	   -0.070000	    0.090000	    9.546875
    4.2561	  0.019500	 -0.034500	  0.995500	   -0.180000	    0.020000	   -0.060000	    9.542969
    4.2661	  0.019500	 -0.037000	  0.996500	   -0.200000	   -0.100000	   -0.010000	    9.535156
    4.2761	  0.019500	 -0.036500	  0.997000	   -0.320000	   -0.110000	    0.000000	    9.531250
    4.2861	  0.020000	 -0.035500	  0.996500	   -0.340000	   -0.070000	   -0.050000	    9.539063
    4.2963	  0.019000	 -0.037500	  0.997000	   -0.370000	   -0.160000	    0.050000	    9.542969
    4.3061	  0.020500	 -0.036500	  0.997000	   -0.270000	   -0.100000	    0.010000	    9.519531
    4.3161	  0.020000	 -0.036000	  0.995500	   -0.230000	   -0.120000	   -0.040000	    9.546875
    4.3261	  0.020000	 -0.035500	  0.995500	   -0.340000	   -0.180000	    0.030000	    9.550781
    4.3361	  0.019500	 -0.036500	  0.994500	   -0.250000	    0.000000	    0.000000	    9.539063
    4.3461	  0.021500	 -0.036000	  0.996000	   -0.290000	   -0.030000	    0.000000	    9.542969
    4.3561	  0.021000	 -0.036500	  0.997000	   -0.110000	   -0.130000	    0.060000	    9.570313
    4.3661	  0.022000	 -0.036500	  0.996000	   -0.210000	   -0.010000	    0.030000	    9.558594
    4.3763	  0.021500	 -0.036500	  0.996500	   -0.220000	   -0.080000	    0.110000	    9.531250
    4.3861	  0.022500	 -0.037000	  0.996500	   -0.240000	   -0.060000	   -0.030000	    9.535156
    4.3961	  0.022000	 -0.036000	  0.996500	   -0.270000	   -0.030000	   -0.030000	    9.535156
    4.4061	  0.022000	 -0.036500	  0.995000	   -0.300000	   -0.060000	   -0.030000	    9.554688
    4.4161	  0.021500	 -0.037000	  0.995500	   -0.370000	    0.040000	    0.060000	    9.550781
    4.4261	  0.022000	 -0.037000	  0.995000	   -0.350000	   -0.090000	    0.110000	    9.546875
    4.4361	  0.022500	 -0.037000	  0.995000	   -0.350000	   -0.130000	    0.060000	    9.542969
    4.4461	  0.022000	 -0.035500	  0.996000	   -0.250000	   -0.040000	    0.010000	    9.546875
    4.4563	  0.021500	 -0.037000	  0.995000	   -0.240000	   -0.030000	   -0.040000	    9.546875
    4.4661	  0.022000	 -0.038000	  0.996500	   -0.330000	    0.000000	    0.010000	    9.542969
    4.4761	  0.022000	 -0.037500	  0.997000	   -0.170000	   -0.110000	    0.020000	    9.542969
    4.4861	  0.021500	 -0.037500	  0.995500	   -0.370000	   -0.170000	    0.030000	    9.531250
    4.4961	  0.021500	 -0.036500	  0.996500	   -0.290000	   -0.160000	    0.020000	    9.535156
    4.5061	  0.021500	 -0.036000	  0.997500	   -0.200000	   -0.070000	    0.020000	    9.550781
    4.5161	  0.021000	 -0.036500	  0.997500	   -0.310000	   -0.130000	   -0.010000	    9.554688
    4.5261	  0.021000	 -0.038000	  0.998000	   -0.350000	   -0.210000	   -0.010000	    9.570313
    4.5363	  0.020500	 -0.036000	  0.997500	   -0.180000	   -0.080000	   -0.040000	    9.570313
    4.5461	  0.021500	 -0.036500	  0.997000	   -0.330000	   -0.180000	    0.000000	    9.562500
    4.5561	  0.021000	 -0.035500	  0.996500	   -0.240000	   -0.150000	    0.160000	    9.554688
    4.5661	  0.020000	 -0.036000	  0.997000	   -0.360000	   -0.070000	   -0.030000	    9.554688
    4.5761	  0.019500	 -0.036000	  0.997500	   -0.260000	   -0.120000	   -0.010000	    9.570313
    4.5861	  0.019500	 -0.036000	  0.995000	   -0.130000	   -0.050000	    0.040000	    9.542969
    4.5961	  0.020000	 -0.036500	  0.995500	   -0.320000	   -0.040000	   -0.050000	    9.550781
    4.6061	  0.019500	 -0.036500	  0.996500	   -0.250000	    0.040000	    0.020000	    9.566406
    4.6163	  0.020000	 -0.036000	  0.995000	   -0.150000	   -0.070000	    0.020000	    9.546875
    4.6261	  0.020000	 -0.036500	  0.996500	   -0.210000	   -0.170000	    0.060000	    9.546875
    4.6361	  0.020000	 -0.038000	  0.995000	   -0.270000	   -0.180000	   -0.010000	    9.523438
    4.6461	  0.021000	 -0.036000	  0.995000	   -0.270000	   -0.150000	   -0.020000	    9.558594
    4.6561	  0.020500	 -0.037500	  0.994500	   -0.160000	   -0.100000	    0.010000	    9.558594
    4.6661	  0.021500	 -0.037000	  0.995500	   -0.240000	   -0.080000	   -0.050000	    9.546875
    4.6761	  0.021000	 -0.037000	  0.996000	   -0.330000	   -0.130000	    0.060000	    9.554688
    4.6861	  0.021000	 -0.036000	  0.995000	   -0.240000	   -0.020000	    0.050000	    9.566406
    4.6963	  0.019500	 -0.036000	  0.995500	   -0.170000	    0.000000	    0.090000	    9.570313
    4.7061	  0.021000	 -0.035500	  0.996000	   -0.320000	   -0.060000	    0.020000	    9.558594
    4.7161	  0.021000	 -0.036000	  0.996000	   -0.270000	   -0.060000	   -0.050000	    9.535156
    4.7261	  0.020000	 -0.035500	  0.994500	   -0.160000	   -0.090000	   -0.020000	    9.527344
    4.7361	  0.021500	 -0.035000	  0.995500	   -0.270000	   -0.170000	    0.060000	    9.523438
    4.7461	  0.020500	 -0.035500	  0.995500	   -0.290000	   -0.150000	   -0.090000	    9.539063
    4.7561	  0.021000	 -0.035000	  0.994500	   -0.270000	   -0.030000	    0.000000	    9.542969
    4.7661	  0.021500	 -0.034500	  0.995000	   -0.260000	   -0.080000	    0.020000	    9.542969
    4.7763	  0.021000	 -0.035500	  0.996000	   -0.200000	   -0.080000	   -0.060000	    9.535156
    4.7861	  0.021500	 -0.034500	  0.995500	   -0.340000	   -0.030000	    0.020000	    9.558594
    4.7961	  0.020000	 -0.035000	  0.995000	   -0.250000	   -0.110000	    0.080000	    9.542969
    4.8062	  0.021500	 -0.036000	  0.996500	   -0.260000	   -0.100000	    0.060000	    9.539063
    4.8161	  0.021000	 -0.036500	  0.995000	   -0.280000	   -0.080000	    0.010000	    9.527344
    4.8261	  0.022000	 -0.036500	  0.995500	   -0.200000	   -0.060000	   -0.040000	    9.523438
    4.8361	  0.022500	 -0.038000	  0.996500	   -0.280000	   -0.090000	    0.010000	    9.523438
    4.8461	  0.022500	 -0.036000	  0.996500	   -0.380000	   -0.200000	    0.150000	    9.550781
    4.8563	  0.022500	 -0.037500	  0.997500	   -0.250000	   -0.090000	    0.010000	    9.546875
    4.8661	  0.022000	 -0.037000	  0.996500	   -0.210000	   -0.130000	   -0.080000	    9.546875
    4.8761	  0.023000	 -0.037000	  0.996500	   -0.150000	   -0.230000	   -0.010000	    9.523438
    4.8861	  0.022500	 -0.037000	  0.996000	   -0.280000	   -0.040000	   -0.070000	    9.523438
    4.8961	  0.021500	 -0.037000	  0.997000	   -0.120000	   -0.100000	   -0.030000	    9.531250
    4.9061	  0.022000	 -0.036000	  0.994000	   -0.390000	   -0.070000	    0.010000	    9.585938
    4.9161	  0.022500	 -0.035500	  0.994500	   -0.320000	   -0.130000	    0.040000	    9.562500
    4.9261	  0.022000	 -0.037000	  0.995000	   -0.180000	   -0.040000	    0.060000	    9.558594
    4.9363	  0.022000	 -0.036000	  0.996000	   -0.320000	    0.010000	   -0.070000	    9.531250
    4.9461	  0.020500	 -0.036500	  0.995500	   -0.320000	   -0.080000	    0.040000	    9.531250
    4.9565	  0.021000	 -0.037000	  0.994500	   -0.220000	    0.000000	    0.050000	    9.542969
    4.9661	  0.021000	 -0.037000	  0.997000	   -0.340000	   -0.070000	    0.060000	    9.535156
    4.9761	  0.021500	 -0.037500	  0.996000	   -0.290000	    0.040000	   -0.050000	    9.554688
    4.9861	  0.021500	 -0.036500	  0.996500	   -0.260000	   -0.070000	   -0.090000	    9.554688
    4.9961	  0.020500	 -0.037500	  0.996500	   -0.200000	   -0.080000	    0.040000	    9.527344
    5.0062	  0.021000	 -0.036500	  0.996000	   -0.250000	   -0.010000	    0.020000	    9.535156
    5.0163	  0.020000	 -0.037000	  0.997000	   -0.270000	   -0.140000	    0.050000	    9.515625
    5.0261	  0.019500	 -0.037500	  0.997000	   -0.210000	   -0.100000	    0.030000	    9.500000
    5.0361	  0.018500	 -0.036500	  0.997500	   -0.320000	   -0.140000	   -0.020000	    9.515625
    5.0461	  0.018000	 -0.036500	  0.996500	   -0.250000	   -0.030000	   -0.010000	    9.550781
    5.0561	  0.017500	 -0.036000	  0.996500	   -0.250000	   -0.230000	   -0.050000	    9.558594
    5.0661	  0.018500	 -0.035000	  0.996000	   -0.270000	    0.000000	    0.000000	    9.550781
    5.0761	  0.019000	 -0.035500	  0.994500	   -0.300000	   -0.160000	    0.030000	    9.546875
    5.0861	  0.018000	 -0.034500	  0.995500	   -0.280000	   -0.140000	   -0.010000	    9.550781
    5.0963	  0.018500	 -0.035000	  0.994500	   -0.310000	   -0.040000	   -0.040000	    9.535156
    5.1062	  0.018500	 -0.034500	  0.995500	   -0.190000	   -0.140000	    0.030000	    9.527344
    5.1161	  0.019500	 -0.033500	  0.994500	   -0.280000	   -0.160000	   -0.020000	    9.554688
    5.1261	  0.018500	 -0.035000	  0.995000	   -0.140000	   -0.080000	    0.020000	    9.562500
    5.1361	  0.021000	 -0.034500	  0.994500	   -0.240000	   -0.140000	    0.070000	    9.546875
    5.1461	  0.022000	 -0.035000	  0.994500	   -0.290000	   -0.060000	    0.030000	    9.550781
    5.1561	  0.023000	 -0.035000	  0.993500	   -0.190000	   -0.070000	    0.090000	    9.527344
    5.1661	  0.022500	 -0.034500	  0.994000	   -0.310000	   -0.080000	   -0.010000	    9.539063
    5.1763	  0.023500	 -0.036000	  0.994500	   -0.280000	   -0.110000	    0.040000	    9.542969
    5.1861	  0.024000	 -0.037000	  0.996000	   -0.240000	   -0.090000	    0.020000	    9.546875
    5.1961	  0.024000	 -0.036000	  0.996000	   -0.290000	   -0.140000	   -0.020000	    9.542969
    5.2062	  0.023500	 -0.036000	  0.996500	   -0.370000	   -0.230000	    0.000000	    9.523438
    5.2161	  0.023500	 -0.037500	  0.996500	   -0.400000	   -0.180000	    0.060000	    9.535156
    5.2261	  0.023000	 -0.038000	  0.998500	   -0.210000	   -0.140000	    0.000000	    9.539063
    5.2361	  0.022500	 -0.037000	  0.998000	   -0.210000	   -0.190000	   -0.010000	    9.523438
    5.2461	  0.022500	 -0.036500	  0.997000	   -0.230000	   -0.100000	    0.060000	    9.539063
    5.2563	  0.020000	 -0.038000	  0.998000	   -0.210000	   -0.110000	    0.000000	    9.554688
    5.2661	  0.021000	 -0.037500	  0.998500	   -0.250000	   -0.180000	   -0.020000	    9.554688
    5.2761	  0.021000	 -0.037500	  0.997500	   -0.300000	   -0.150000	    0.010000	    9.542969
    5.2861	  0.021000	 -0.037000	  0.998000	   -0.280000	   -0.020000	   -0.010000	    9.542969
    5.2961	  0.021000	 -0.038000	  0.997000	   -0.270000	   -0.110000	    0.010000	    9.535156
    5.3062	  0.019500	 -0.036500	  0.996500	   -0.300000	    0.030000	    0.060000	    9.519531
    5.3161	  0.020500	 -0.037500	  0.997000	   -0.120000	   -0.160000	   -0.040000	    9.527344
    5.3261	  0.020000	 -0.037000	  0.997000	   -0.280000	   -0.080000	    0.010000	    9.542969
    5.3363	  0.020500	 -0.037000	  0.996500	   -0.160000	   -0.180000	    0.030000	    9.554688
    5.3461	  0.020500	 -0.037500	  0.996000	   -0.240000	   -0.090000	   -0.040000	    9.527344
    5.3561	  0.021000	 -0.036500	  0.996500	   -0.230000	    0.020000	   -0.050000	    9.527344
    5.3661	  0.020500	 -0.036500	  0.995500	   -0.240000	   -0.090000	    0.100000	    9.539063
    5.3761	  0.020500	 -0.036500	  0.995500	   -0.190000	   -0.130000	   -0.060000	    9.550781
    5.3861	  0.020500	 -0.035000	  0.994500	   -0.250000	   -0.080000	    0.050000	    9.554688
    5.3961	  0.021000	 -0.035000	  0.995000	   -0.250000	   -0.180000	    0.100000	    9.539063
    5.4062	  0.021000	 -0.035000	  0.993500	   -0.120000	   -0.070000	   -0.030000	    9.523438
    5.4164	  0.020500	 -0.034000	  0.993500	   -0.190000	    0.000000	    0.020000	    9.546875
    5.4262	  0.021000	 -0.034500	  0.993000	   -0.260000	   -0.160000	    0.000000	    9.535156
    5.4362	  0.020500	 -0.035000	  0.993500	   -0.260000	   -0.130000	    0.000000	    9.542969
    5.4461	  0.021000	 -0.035000	  0.994500	   -0.300000	   -0.150000	    0.030000	    9.539063
    5.4561	  0.020000	 -0.035500	  0.994500	   -0.270000	   -0.150000	   -0.030000	    9.539063
    5.4661	  0.020000	 -0.035500	  0.995000	   -0.350000	   -0.010000	    0.080000	    9.539063
    5.4761	  0.019500	 -0.035000	  0.996000	   -0.250000	   -0.130000	    0.030000	    9.539063
    5.4861	  0.020500	 -0.035500	  0.995500	   -0.360000	   -0.160000	   -0.040000	    9.523438
    5.4964	  0.020000	 -0.034000	  0.996500	   -0.320000	   -0.070000	    0.030000	    9.542969
    5.5062	  0.021000	 -0.035500	  0.997000	   -0.310000	   -0.070000	   -0.020000	    9.542969
    5.5161	  0.021000	 -0.036500	  0.997500	   -0.230000	   -0.170000	    0.030000	    9.562500
    5.5261	  0.020500	 -0.037500	  0.997000	   -0.310000	   -0.200000	   -0.060000	    9.566406
    5.5361	  0.021500	 -0.037000	  0.997500	   -0.260000	   -0.160000	   -0.010000	    9.554688
    5.5461	  0.021500	 -0.036500	  0.998000	   -0.260000	   -0.180000	    0.000000	    9.546875
    5.5561	  0.021000	 -0.037000	  0.998000	   -0.280000	   -0.120000	    0.030000	    9.535156
    5.5661	  0.021500	 -0.037500	  0.998000	   -0.320000	   -0.020000	   -0.030000	    9.546875
    5.5764	  0.021000	 -0.037500	  0.998000	   -0.280000	   -0.140000	   -0.020000	    9.531250
    5.5861	  0.022000	 -0.038000	  0.998000	   -0.320000	   -0.160000	    0.030000	    9.539063
    5.5962	  0.022000	 -0.037500	  0.996500	   -0.350000	   -0.150000	   -0.030000	    9.550781
    5.6062	  0.021500	 -0.037000	  0.997500	   -0.290000	   -0.110000	   -0.010000	    9.574219
    5.6162	  0.021500	 -0.038000	  0.996000	   -0.190000	   -0.040000	    0.070000	    9.562500
    5.6262	  0.022000	 -0.039000	  0.995500	   -0.250000	   -0.120000	   -0.050000	    9.562500
    5.6361	  0.022000	 -0.038000	  0.995000	   -0.230000	   -0.080000	   -0.100000	    9.554688
    5.6461	  0.022000	 -0.037500	  0.995000	   -0.250000	   -0.070000	   -0.050000	    9.550781
    5.6564	  0.022000	 -0.037000	  0.996000	   -0.280000	   -0.080000	    0.010000	    9.546875
    5.6661	  0.022000	 -0.036000	  0.994000	   -0.230000	   -0.050000	    0.010000	    9.539063
    5.6761	  0.022000	 -0.036500	  0.995000	   -0.130000	   -0.060000	    0.060000	    9.539063
    5.6862	  0.022000	 -0.035500	  0.994000	   -0.290000	   -0.090000	    0.000000	    9.558594
    5.6961	  0.022000	 -0.036500	  0.995000	   -0.200000	   -0.060000	    0.010000	    9.554688
    5.7062	  0.020500	 -0.036000	  0.995000	   -0.210000	    0.020000	   -0.040000	    9.539063
    5.7162	  0.021500	 -0.036500	  0.996000	   -0.220000	   -0.130000	   -0.050000	    9.546875
    5.7262	  0.020500	 -0.036000	  0.995500	   -0.360000	    0.010000	    0.050000	    9.566406
    5.7364	  0.021500	 -0.035500	  0.994500	   -0.290000	   -0.130000	    0.000000	    9.542969
    5.7462	  0.020500	 -0.035500	  0.995500	   -0.220000	   -0.060000	    0.010000	    9.539063
    5.7561	  0.020500	 -0.036000	  0.995000	   -0.240000	   -0.100000	    0.150000	    9.554688
    5.7662	  0.021000	 -0.036000	  0.995500	   -0.310000	   -0.060000	   -0.010000	    9.550781
    5.7762	  0.019500	 -0.036500	  0.994500	   -0.390000	   -0.130000	    0.090000	    9.527344
    5.7862	  0.020000	 -0.036000	  0.996000	   -0.210000	   -0.150000	    0.000000	    9.550781
    5.7962	  0.020000	 -0.035500	  0.997000	   -0.310000	   -0.070000	   -0.010000	    9.550781
    5.8062	  0.020000	 -0.036000	  0.997500	   -0.340000	   -0.130000	   -0.010000	    9.554688
    5.8164	  0.019500	 -0.035000	  0.997000	   -0.230000	   -0.010000	    0.010000	    9.546875
    5.8262	  0.020000	 -0.036000	  0.997000	   -0.230000	   -0.020000	   -0.040000	    9.539063
    5.8362	  0.021000	 -0.036500	  0.997500	   -0.230000	   -0.120000	    0.030000	    9.519531
    5.8462	  0.020500	 -0.036500	  0.997000	   -0.260000	   -0.040000	   -0.070000	    9.527344
    5.8562	  0.021000	 -0.036500	  0.997500	   -0.280000	   -0.030000	   -0.100000	    9.535156
    5.8662	  0.020000	 -0.038000	  0.998000	   -0.260000	   -0.120000	   -0.050000	    9.554688
    5.8762	  0.021000	 -0.037000	  0.996500	   -0.220000	   -0.060000	    0.060000	    9.546875
    5.8862	  0.020500	 -0.037000	  0.997000	   -0.170000	   -0.070000	    0.010000	    9.523438
    5.8964	  0.020500	 -0.037000	  0.997000	   -0.230000	   -0.110000	    0.080000	    9.539063
    5.9062	  0.019500	 -0.036500	  0.996500	   -0.370000	   -0.100000	    0.000000	    9.546875
    5.9162	  0.020500	 -0.036000	  0.996000	   -0.240000	   -0.180000	   -0.050000	    9.542969
    5.9262	  0.021000	 -0.036500	  0.996500	   -0.240000	   -0.020000	    0.000000	    9.554688
    5.9362	  0.021500	 -0.037000	  0.995000	   -0.280000	   -0.200000	    0.020000	    9.558594
    5.9462	  0.021500	 -0.036500	  0.995000	   -0.170000	   -0.060000	    0.050000	    9.554688
    5.9565	  0.021500	 -0.037000	  0.994500	   -0.290000	   -0.040000	   -0.040000	    9.554688
    5.9662	  0.021500	 -0.036000	  0.995000	   -0.250000	   -0.110000	    0.130000	    9.523438
    5.9764	  0.021000	 -0.037000	  0.995000	   -0.320000	   -0.070000	    0.040000	    9.535156
    5.9862	  0.021500	 -0.036000	  0.995000	   -0.290000	   -0.170000	    0.040000	    9.550781
    5.9962	  0.021000	 -0.036000	  0.995000	   -0.340000	   -0.120000	    0.010000	    9.558594
    6.0062	  0.022000	 -0.035500	  0.995500	   -0.360000	   -0.160000	    0.020000	    9.542969
    6.0162	  0.022000	 -0.036000	  0.996000	   -0.160000	   -0.100000	   -0.010000	    9.554688
    6.0262	  0.021000	 -0.036500	  0.994000	   -0.310000	   -0.120000	   -0.030000	    9.558594
    6.0362	  0.021500	 -0.037000	  0.995000	   -0.250000	    0.000000	   -0.020000	    9.554688
    6.0462	  0.022000	 -0.036500	  0.996000	   -0.170000	   -0.030000	   -0.050000	    9.566406
    6.0564	  0.022000	 -0.036500	  0.996000	   -0.340000	   -0.120000	    0.080000	    9.519531
    6.0662	  0.021500	 -0.036000	  0.996500	   -0.240000	   -0.070000	    0.040000	    9.503906
    6.0762	  0.021500	 -0.036000	  0.997500	   -0.200000	   -0.150000	    0.020000	    9.539063
    6.0862	  0.020500	 -0.036000	  0.997000	   -0.220000	   -0.040000	    0.060000	    9.542969
    6.0962	  0.022500	 -0.036000	  0.997000	   -0.220000	    0.000000	    0.070000	    9.527344
    6.1063	  0.021000	 -0.036500	  0.996500	   -0.220000	   -0.160000	    0.020000	    9.523438
    6.1162	  0.021500	 -0.036000	  0.996500	   -0.340000	   -0.150000	    0.100000	    9.523438
    6.1262	  0.021000	 -0.036500	  0.996000	   -0.270000	    0.040000	   -0.020000	    9.550781
    6.1364	  0.021500	 -0.036500	  0.996500	   -0.260000	   -0.090000	    0.040000	    9.539063
    6.1462	  0.021500	 -0.036000	  0.996000	   -0.290000	   -0.090000	    0.060000	    9.539063
    6.1562	  0.021500	 -0.035500	  0.996000	   -0.270000	   -0.070000	    0.010000	    9.531250
    6.1662	  0.021000	 -0.036500	  0.997000	   -0.150000	   -0.030000	   -0.030000	    9.539063
    6.1762	  0.021000	 -0.036000	  0.996000	   -0.220000	   -0.030000	    0.040000	    9.570313
    6.1862	  0.021000	 -0.037000	  0.996500	   -0.280000	   -0.150000	    0.040000	    9.539063
    6.1962	  0.020000	 -0.038000	  0.995500	   -0.490000	    0.030000	    0.080000	    9.535156
    6.2062	  0.021000	 -0.037500	  0.997000	   -0.230000	   -0.110000	   -0.080000	    9.542969
    6.2164	  0.021000	 -0.037500	  0.995500	   -0.260000	   -0.160000	    0.000000	    9.523438
    6.2262	  0.021500	 -0.036500	  0.995500	   -0.220000	   -0.010000	   -0.060000	    9.562500
    6.2362	  0.020500	 -0.037500	  0.995000	   -0.320000	   -0.130000	    0.130000	    9.578125
    6.2462	  0.020000	 -0.036500	  0.996500	   -0.260000	   -0.140000	    0.040000	    9.558594
    6.2562	  0.020500	 -0.036000	  0.995500	   -0.290000	   -0.080000	   -0.030000	    9.550781
    6.2662	  0.020000	 -0.036500	  0.996000	   -0.280000	   -0.070000	    0.020000	    9.562500
    6.2762	  0.021000	 -0.036000	  0.995500	   -0.280000	   -0.180000	    0.090000	    9.562500
    6.2862	  0.020500	 -0.037500	  0.993500	   -0.190000	    0.050000	    0.060000	    9.539063
    6.2964	  0.020000	 -0.037000	  0.996000	   -0.220000	   -0.060000	   -0.030000	    9.535156
    6.3062	  0.020000	 -0.036500	  0.996500	   -0.300000	    0.000000	   -0.030000	    9.527344
    6.3162	  0.020000	 -0.036000	  0.996000	   -0.240000	   -0.020000	   -0.050000	    9.539063
    6.3262	  0.020000	 -0.035500	  0.996500	   -0.400000	   -0.100000	    0.000000	    9.550781
    6.3362	  0.020500	 -0.035500	  0.997500	   -0.220000	   -0.120000	    0.050000	    9.566406
    6.3462	  0.020500	 -0.036500	  0.994500	   -0.210000	   -0.010000	   -0.130000	    9.582031
    6.3562	  0.021000	 -0.037000	  0.996500	   -0.340000	   -0.130000	    0.090000	    9.554688
    6.3662	  0.020000	 -0.036000	  0.997000	   -0.250000	   -0.010000	   -0.020000	    9.546875
    6.3764	  0.021500	 -0.036000	  0.996000	   -0.260000	   -0.100000	    0.000000	    9.566406
    6.3862	  0.021500	 -0.036000	  0.996500	   -0.220000	    0.010000	    0.000000	    9.562500
    6.3962	  0.020500	 -0.036000	  0.996500	   -0.250000	   -0.060000	    0.070000	    9.558594
    6.4062	  0.021000	 -0.037000	  0.997500	   -0.180000	   -0.170000	    0.010000	    9.542969
    6.4162	  0.020500	 -0.036000	  0.996500	   -0.210000	    0.010000	   -0.010000	    9.531250
    6.4262	  0.022000	 -0.035500	  0.996500	   -0.350000	   -0.120000	   -0.020000	    9.539063
    6.4362	  0.022000	 -0.035500	  0.997000	   -0.290000	   -0.110000	   -0.010000	    9.562500
    6.4462	  0.021500	 -0.036000	  0.995000	   -0.300000	   -0.060000	    0.140000	    9.558594
    6.4564	  0.022000	 -0.036000	  0.995500	   -0.290000	   -0.030000	   -0.050000	    9.523438
    6.4662	  0.021500	 -0.036000	  0.996500	   -0.210000	   -0.080000	   -0.010000	    9.539063
    6.4762	  0.022500	 -0.036500	  0.995500	   -0.220000	   -0.130000	    0.110000	    9.539063
    6.4862	  0.022500	 -0.037000	  0.995000	   -0.290000	   -0.140000	    0.050000	    9.539063
    6.4962	  0.022500	 -0.035500	  0.996000	   -0.310000	   -0.060000	   -0.050000	    9.550781
    6.5062	  0.022000	 -0.036000	  0.996000	   -0.240000	   -0.130000	   -0.020000	    9.535156
    6.5162	  0.022500	 -0.036500	  0.995000	   -0.200000	   -0.100000	   -0.140000	    9.542969
    6.5262	  0.022000	 -0.037000	  0.995500	   -0.250000	   -0.130000	   -0.080000	    9.562500
    6.5364	  0.022500	 -0.037000	  0.994500	   -0.230000	   -0.110000	    0.010000	    9.546875
    6.5462	  0.021500	 -0.034500	  0.996000	   -0.210000	    0.000000	   -0.060000	    9.542969
    6.5562	  0.022000	 -0.036500	  0.995500	   -0.240000	    0.010000	    0.020000	    9.542969
    6.5662	  0.021500	 -0.036500	  0.995500	   -0.200000	   -0.100000	   -0.020000	    9.542969
    6.5762	  0.020000	 -0.036000	  0.996000	   -0.290000	   -0.140000	    0.100000	    9.511719
    6.5862	  0.021500	 -0.036500	  0.996000	   -0.310000	   -0.180000	    0.020000	    9.562500
    6.5962	  0.021000	 -0.036500	  0.996500	   -0.330000	   -0.060000	    0.020000	    9.550781
    6.6062	  0.021000	 -0.036500	  0.996000	   -0.260000	   -0.140000	    0.040000	    9.531250
    6.6164	  0.021000	 -0.037000	  0.996500	   -0.230000	   -0.110000	    0.030000	    9.542969
    6.6262	  0.020000	 -0.036000	  0.997500	   -0.320000	   -0.190000	    0.040000	    9.558594
    6.6362	  0.021000	 -0.036000	  0.997000	   -0.290000	   -0.140000	    0.050000	    9.558594
    6.6462	  0.021500	 -0.037000	  0.997000	   -0.230000	   -0.060000	   -0.060000	    9.546875
    6.6562	  0.021500	 -0.037000	  0.997500	   -0.300000	   -0.100000	    0.090000	    9.539063
    6.6662	  0.021500	 -0.036500	  0.997500	   -0.190000	   -0.170000	    0.050000	    9.515625
    6.6762	  0.019500	 -0.036500	  0.996000	   -0.300000	   -0.040000	   -0.060000	    9.542969
    6.6862	  0.021000	 -0.038000	  0.998000	   -0.320000	    0.000000	    0.000000	    9.558594
    6.6964	  0.021500	 -0.037000	  0.996000	   -0.310000	   -0.050000	   -0.030000	    9.554688
    6.7062	  0.021500	 -0.036500	  0.995500	   -0.270000	   -0.100000	   -0.060000	    9.539063
    6.7162	  0.021000	 -0.037500	  0.995500	   -0.310000	   -0.020000	    0.060000	    9.550781
    6.7262	  0.021000	 -0.037000	  0.997000	   -0.220000	   -0.080000	    0.000000	    9.539063
    6.7362	  0.021000	 -0.036500	  0.995500	   -0.230000	   -0.240000	    0.020000	    9.546875
    6.7462	  0.021000	 -0.037000	  0.996500	   -0.300000	   -0.020000	   -0.040000	    9.554688
    6.7562	  0.021500	 -0.037000	  0.995000	   -0.340000	   -0.130000	   -0.070000	    9.554688
    6.7662	  0.021000	 -0.036000	  0.996500	   -0.290000	   -0.150000	    0.050000	    9.550781
    6.7764	  0.021500	 -0.035500	  0.996000	   -0.300000	   -0.160000	    0.080000	    9.546875
    6.7862	  0.021000	 -0.036000	  0.996500	   -0.300000	   -0.130000	   -0.020000	    9.539063
    6.7962	  0.019000	 -0.035500	  0.995000	   -0.360000	   -0.160000	   -0.040000	    9.546875
    6.8062	  0.021000	 -0.035500	  0.997000	   -0.150000	    0.030000	   -0.070000	    9.546875
    6.8162	  0.020500	 -0.035000	  0.995000	   -0.190000	   -0.060000	   -0.010000	    9.562500
    6.8262	  0.021000	 -0.035500	  0.995000	   -0.350000	   -0.080000	    0.020000	    9.542969
    6.8362	  0.021000	 -0.036000	  0.995500	   -0.200000	   -0.080000	   -0.040000	    9.542969
    6.8462	  0.021000	 -0.037000	  0.995500	   -0.280000	   -0.010000	   -0.020000	    9.554688
    6.8564	  0.020500	 -0.036500	  0.995500	   -0.220000	   -0.090000	    0.010000	    9.523438
    6.8662	  0.020500	 -0.037000	  0.996000	   -0.210000	   -0.060000	   -0.020000	    9.515625
    6.8762	  0.021500	 -0.036000	  0.996500	   -0.250000	   -0.160000	    0.150000	    9.539063
    6.8862	  0.021500	 -0.036500	  0.995000	   -0.250000	   -0.060000	   -0.010000	    9.554688
    6.8962	  0.021000	 -0.036500	  0.996000	   -0.250000	   -0.120000	   -0.030000	    9.539063
    6.9062	  0.022000	 -0.036500	  0.996500	   -0.280000	   -0.060000	    0.090000	    9.539063
    6.9162	  0.022000	 -0.036000	  0.996500	   -0.270000	   -0.230000	    0.050000	    9.558594
    6.9262	  0.022500	 -0.035500	  0.996500	   -0.210000	   -0.140000	   -0.040000	    9.570313
    6.9364	  0.021500	 -0.037000	  0.995500	   -0.320000	   -0.180000	    0.040000	    9.550781
    6.9462	  0.022500	 -0.037000	  0.996500	   -0.230000	   -0.070000	    0.020000	    9.523438
    6.9566	  0.021000	 -0.036000	  0.996500	   -0.380000	   -0.040000	   -0.010000	    9.531250
    6.9662	  0.021500	 -0.037000	  0.997000	   -0.220000	   -0.070000	    0.000000	    9.539063
    6.9762	  0.021500	 -0.037000	  0.996500	   -0.360000	   -0.100000	    0.050000	    9.546875
    6.9862	  0.022000	 -0.037000	  0.997000	   -0.270000	   -0.120000	   -0.030000	    9.546875
    6.9962	  0.022500	 -0.037000	  0.996500	   -0.210000	   -0.130000	   -0.020000	    9.554688
    7.0062	  0.022000	 -0.036000	  0.997000	   -0.240000	   -0.170000	   -0.030000	    9.535156
    7.0164	  0.021000	 -0.036000	  0.997000	   -0.260000	   -0.090000	   -0.040000	    9.554688
    7.0262	  0.021000	 -0.037000	  0.996500	   -0.110000	   -0.050000	    0.010000	    9.554688
    7.0362	  0.021000	 -0.037000	  0.995500	   -0.270000	    0.000000	   -0.050000	    9.554688
    7.0462	  0.020500	 -0.037000	  0.996000	   -0.200000	   -0.110000	    0.090000	    9.546875
    7.0562	  0.020500	 -0.036000	  0.994500	   -0.220000	   -0.060000	   -0.090000	    9.546875
    7.0662	  0.021000	 -0.035500	  0.996000	   -0.240000	   -0.060000	    0.020000	    9.535156
    7.0762	  0.019000	 -0.037500	  0.996000	   -0.270000	   -0.060000	    0.060000	    9.539063
    7.0862	  0.020000	 -0.035500	  0.996500	   -0.130000	   -0.060000	   -0.090000	    9.523438
    7.0964	  0.021000	 -0.037000	  0.995000	   -0.300000	   -0.100000	    0.010000	    9.542969
    7.1062	  0.020000	 -0.036000	  0.996500	   -0.160000	   -0.130000	    0.010000	    9.566406
    7.1163	  0.020500	 -0.034500	  0.995500	   -0.260000	   -0.100000	   -0.010000	    9.554688
    7.1262	  0.021000	 -0.035500	  0.995000	   -0.200000	   -0.100000	   -0.060000	    9.546875
    7.1362	  0.021000	 -0.035000	  0.996000	   -0.240000	   -0.150000	   -0.050000	    9.546875
    7.1462	  0.021000	 -0.036000	  0.994000	   -0.220000	    0.120000	   -0.040000	    9.531250
    7.1562	  0.021000	 -0.037000	  0.995500	   -0.240000	   -0.020000	    0.140000	    9.527344
    7.1662	  0.020500	 -0.035500	  0.996000	   -0.230000	   -0.160000	   -0.020000	    9.539063
    7.1764	  0.021000	 -0.036500	  0.995500	   -0.310000	   -0.060000	    0.030000	    9.542969
    7.1862	  0.021000	 -0.035500	  0.996500	   -0.390000	   -0.140000	    0.150000	    9.542969
    7.1962	  0.021000	 -0.036500	  0.996000	   -0.360000	   -0.110000	   -0.030000	    9.562500
    7.2062	  0.022000	 -0.036500	  0.996500	   -0.200000	   -0.120000	   -0.010000	    9.550781
    7.2162	  0.021500	 -0.035500	  0.997500	   -0.280000	   -0.020000	   -0.040000	    9.527344
    7.2262	  0.021000	 -0.035500	  0.998500	   -0.290000	   -0.140000	   -0.040000	    9.542969
    7.2362	  0.021000	 -0.036000	  0.996500	   -0.300000	   -0.120000	   -0.050000	    9.542969
    7.2462	  0.022000	 -0.035000	  0.997500	   -0.240000	   -0.010000	    0.030000	    9.542969
    7.2564	  0.021500	 -0.036500	  0.997500	   -0.160000	   -0.010000	   -0.050000	    9.550781
    7.2662	  0.021500	 -0.037000	  0.996500	   -0.270000	   -0.020000	   -0.070000	    9.550781
    7.2762	  0.021500	 -0.036500	  0.995500	   -0.300000	   -0.070000	   -0.100000	    9.527344
    7.2862	  0.020500	 -0.036500	  0.996000	   -0.280000	   -0.190000	   -0.130000	    9.535156
    7.2962	  0.020000	 -0.036500	  0.996000	   -0.220000	    0.010000	   -0.090000	    9.542969
    7.3063	  0.021500	 -0.036500	  0.996000	   -0.190000	    0.020000	    0.000000	    9.542969
    7.3162	  0.020500	 -0.036000	  0.994000	   -0.300000	   -0.060000	    0.020000	    9.546875
    7.3262	  0.021000	 -0.037000	  0.997500	   -0.300000	    0.100000	   -0.030000	    9.570313
    7.3364	  0.021000	 -0.036500	  0.995500	   -0.290000	   -0.170000	    0.060000	    9.570313
    7.3462	  0.021000	 -0.037500	  0.996000	   -0.310000	   -0.040000	    0.050000	    9.566406
    7.3562	  0.020500	 -0.036000	  0.995500	   -0.240000	   -0.050000	    0.050000	    9.550781
    7.3662	  0.020500	 -0.036500	  0.994500	   -0.310000	   -0.110000	    0.010000	    9.531250
    7.3762	  0.020500	 -0.037500	  0.996000	   -0.220000	    0.010000	    0.080000	    9.519531
    7.3862	  0.021000	 -0.036500	  0.995500	   -0.260000	   -0.080000	   -0.070000	    9.523438
    7.3962	  0.021500	 -0.036000	  0.993500	   -0.260000	   -0.020000	   -0.120000	    9.535156
    7.4063	  0.021000	 -0.038500	  1.000000	   -0.200000	   -0.110000	    0.020000	    9.531250
    7.4164	  0.021000	 -0.035500	  0.997500	   -0.370000	   -0.220000	   -0.010000	    9.539063
    7.4262	  0.022500	 -0.036500	  0.990500	   -0.200000	   -0.080000	    0.070000	    9.511719
    7.4362	  0.021000	 -0.036500	  0.998500	   -0.280000	   -0.070000	   -0.060000	    9.507813
    7.4462	  0.021500	 -0.034000	  0.996500	   -0.250000	   -0.160000	    0.000000	    9.515625
    7.4562	  0.022000	 -0.035000	  0.994500	   -0.250000	   -0.100000	   -0.050000	    9.546875
    7.4662	  0.021000	 -0.037000	  0.997500	   -0.290000	   -0.090000	    0.140000	    9.535156
    7.4762	  0.022000	 -0.036000	  0.996000	   -0.300000	   -0.050000	   -0.030000	    9.535156
    7.4862	  0.021000	 -0.035000	  0.996500	   -0.250000	   -0.080000	    0.090000	    9.546875
    7.4964	  0.021500	 -0.036000	  0.995000	   -0.310000	   -0.010000	    0.030000	    9.562500
    7.5063	  0.021000	 -0.035000	  0.996500	   -0.290000	   -0.180000	   -0.050000	    9.554688
    7.5162	  0.020500	 -0.035000	  0.996500	   -0.160000	   -0.040000	    0.050000	    9.535156
    7.5262	  0.019000	 -0.036000	  0.997000	   -0.230000	   -0.050000	    0.000000	    9.562500
    7.5362	  0.020500	 -0.036000	  0.997500	   -0.270000	   -0.080000	    0.070000	    9.554688
    7.5462	  0.020500	 -0.036000	  0.995000	   -0.290000	   -0.150000	    0.080000	    9.523438
    7.5562	  0.020500	 -0.036500	  0.999500	   -0.390000	   -0.100000	    0.030000	    9.527344
    7.5662	  0.018500	 -0.036000	  0.996500	   -0.230000	   -0.190000	   -0.070000	    9.554688
    7.5764	  0.021500	 -0.038500	  0.996500	   -0.270000	   -0.090000	   -0.010000	    9.570313
    7.5862	  0.021500	 -0.037500	  0.995500	   -0.210000	   -0.070000	   -0.050000	    9.550781
    7.5962	  0.020500	 -0.038000	  0.996000	   -0.280000	   -0.050000	    0.040000	    9.542969
    7.6063	  0.021500	 -0.038500	  0.995500	   -0.140000	   -0.210000	    0.090000	    9.550781
    7.6162	  0.022000	 -0.036000	  0.993000	   -0.350000	   -0.060000	   -0.040000	    9.523438
    7.6262	  0.022500	 -0.038000	  0.997500	   -0.310000	    0.000000	    0.010000	    9.546875
    7.6362	  0.021500	 -0.037500	  0.997000	   -0.210000	   -0.080000	   -0.030000	    9.566406
    7.6462	  0.023000	 -0.036500	  0.991500	   -0.120000	   -0.140000	   -0.030000	    9.566406
    7.6564	  0.022000	 -0.038500	  0.997000	   -0.130000	   -0.050000	   -0.020000	    9.539063
    7.6662	  0.023500	 -0.037000	  0.996000	   -0.090000	   -0.060000	   -0.110000	    9.531250
    7.6762	  0.023500	 -0.037000	  0.994000	   -0.230000	   -0.080000	   -0.060000	    9.546875
    7.6862	  0.021500	 -0.038000	  0.995500	   -0.420000	   -0.230000	    0.100000	    9.527344
    7.6962	  0.022500	 -0.037000	  0.996500	   -0.280000	   -0.080000	   -0.110000	    9.500000
    7.7063	  0.022500	 -0.036500	  0.994000	   -0.160000	   -0.050000	    0.000000	    9.527344
    7.7162	  0.022000	 -0.037000	  0.996500	   -0.270000	   -0.050000	   -0.060000	    9.539063
    7.7262	  0.022000	 -0.036000	  0.995500	   -0.190000	   -0.050000	   -0.020000	    9.554688
    7.7364	  0.021000	 -0.035500	  0.994500	   -0.280000	   -0.110000	    0.030000	    9.539063
    7.7462	  0.021500	 -0.036000	  0.995500	   -0.290000	   -0.060000	   -0.020000	    9.523438
    7.7562	  0.021000	 -0.034500	  0.996000	   -0.240000	   -0.100000	   -0.020000	    9.554688
    7.7662	  0.021000	 -0.035500	  0.996500	   -0.230000	   -0.130000	   -0.040000	    9.558594
    7.7762	  0.021500	 -0.034000	  0.995500	   -0.280000	   -0.060000	   -0.060000	    9.550781
    7.7862	  0.020500	 -0.035500	  0.996500	   -0.250000	   -0.050000	    0.090000	    9.554688
    7.7962	  0.020500	 -0.035000	  0.995500	   -0.280000	   -0.130000	    0.060000	    9.550781
    7.8063	  0.021000	 -0.034000	  0.996000	   -0.340000	   -0.120000	    0.080000	    9.562500
    7.8164	  0.021500	 -0.034500	  0.995500	   -0.220000	   -0.100000	    0.000000	    9.546875
    7.8262	  0.021000	 -0.035500	  0.995500	   -0.280000	   -0.050000	    0.070000	    9.554688
    7.8362	  0.021000	 -0.036000	  0.996000	   -0.300000	   -0.150000	   -0.020000	    9.539063
    7.8462	  0.021000	 -0.036500	  0.995500	   -0.190000	   -0.120000	    0.010000	    9.527344
    7.8563	  0.021000	 -0.036000	  0.996000	   -0.320000	   -0.070000	    0.030000	    9.550781
    7.8662	  0.022000	 -0.036500	  0.997000	   -0.340000	   -0.110000	   -0.050000	    9.539063
    7.8762	  0.021000	 -0.036000	  0.996000	   -0.210000	   -0.130000	    0.020000	    9.531250
    7.8862	  0.021500	 -0.037000	  0.995000	   -0.310000	   -0.150000	   -0.040000	    9.542969
    7.8964	  0.021000	 -0.036500	  0.995000	   -0.340000	   -0.050000	   -0.080000	    9.570313
    7.9062	  0.020500	 -0.038000	  0.995500	   -0.160000	   -0.070000	   -0.170000	    9.554688
    7.9162	  0.020500	 -0.037000	  0.995000	   -0.250000	   -0.080000	    0.010000	    9.554688
    7.9262	  0.020000	 -0.038500	  0.995000	   -0.270000	   -0.040000	    0.000000	    9.535156
    7.9362	  0.020500	 -0.037500	  0.994500	   -0.360000	   -0.030000	   -0.050000	    9.550781
    7.9462	  0.019500	 -0.037500	  0.996000	   -0.260000	   -0.040000	   -0.090000	    9.554688
    7.9566	  0.020000	 -0.036000	  0.996500	   -0.250000	   -0.180000	   -0.110000	    9.578125
    7.9662	  0.019500	 -0.037500	  0.995500	   -0.230000	   -0.070000	   -0.040000	    9.554688
    7.9764	  0.020000	 -0.037000	  0.995500	   -0.270000	   -0.070000	    0.040000	    9.550781
    7.9862	  0.019500	 -0.038000	  0.998000	   -0.260000	   -0.120000	    0.100000	    9.562500
    7.9962	  0.020000	 -0.037500	  0.996500	   -0.250000	   -0.080000	    0.010000	    9.523438
    8.0063	  0.021500	 -0.037500	  0.996000	   -0.240000	   -0.160000	    0.010000	    9.542969
    8.0162	  0.021000	 -0.037000	  0.996500	   -0.240000	   -0.030000	    0.060000	    9.558594
    8.0262	  0.020000	 -0.036500	  0.998500	   -0.210000	    0.040000	    0.000000	    9.550781
    8.0362	  0.020500	 -0.037000	  0.998000	   -0.280000	   -0.110000	   -0.070000	    9.511719
    8.0462	  0.021500	 -0.036000	  0.996000	   -0.220000	   -0.050000	    0.020000	    9.539063
    8.0565	  0.021000	 -0.037000	  0.997000	   -0.220000	   -0.100000	   -0.020000	    9.578125
    8.0663	  0.022000	 -0.037000	  0.997000	   -0.260000	   -0.140000	    0.010000	    9.566406
    8.0763	  0.022000	 -0.037000	  0.996500	   -0.240000	   -0.140000	    0.020000	    9.566406
    8.0862	  0.022000	 -0.036500	  0.996000	   -0.310000	   -0.110000	    0.020000	    9.542969
    8.0963	  0.021000	 -0.036500	  0.995500	   -0.170000	   -0.050000	    0.040000	    9.550781
    8.1063	  0.022500	 -0.036000	  0.996500	   -0.280000	   -0.130000	    0.010000	    9.554688
    8.1163	  0.022500	 -0.036000	  0.995500	   -0.190000	   -0.100000	   -0.040000	    9.554688
    8.1262	  0.022000	 -0.035000	  0.996000	   -0.350000	   -0.170000	    0.030000	    9.554688
    8.1365	  0.022500	 -0.036000	  0.994000	   -0.190000	   -0.050000	   -0.010000	    9.550781
    8.1462	  0.022000	 -0.034500	  0.995000	   -0.100000	   -0.060000	   -0.020000	    9.542969
    8.1562	  0.021500	 -0.036000	  0.994000	   -0.260000	   -0.100000	    0.080000	    9.539063
    8.1662	  0.021000	 -0.036000	  0.995000	   -0.220000	   -0.130000	   -0.100000	    9.523438
    8.1762	  0.022000	 -0.035000	  0.994500	   -0.240000	   -0.050000	   -0.020000	    9.566406
    8.1862	  0.021000	 -0.035000	  0.994000	   -0.270000	   -0.030000	   -0.020000	    9.574219
    8.1962	  0.022000	 -0.035500	  0.995000	   -0.230000	   -0.070000	   -0.060000	    9.554688
    8.2063	  0.021000	 -0.036000	  0.995500	   -0.210000	   -0.110000	    0.020000	    9.542969
    8.2165	  0.021000	 -0.035500	  0.994500	   -0.310000	    0.060000	   -0.080000	    9.546875
    8.2262	  0.021500	 -0.035500	  0.996000	   -0.280000	   -0.120000	    0.110000	    9.539063
    8.2362	  0.020500	 -0.036500	  0.995500	   -0.210000	   -0.030000	   -0.060000	    9.507813
    8.2462	  0.021000	 -0.036000	  0.995500	   -0.210000	   -0.140000	    0.040000	    9.500000
    8.2562	  0.021500	 -0.036000	  0.996500	   -0.310000	   -0.140000	    0.010000	    9.519531
    8.2662	  0.021500	 -0.035500	  0.996500	   -0.200000	   -0.110000	   -0.150000	    9.535156
    8.2762	  0.020500	 -0.037500	  0.996000	   -0.230000	   -0.210000	    0.080000	    9.570313
    8.2862	  0.021000	 -0.036500	  0.996000	   -0.320000	   -0.140000	    0.070000	    9.593750
    8.2965	  0.020000	 -0.036500	  0.995500	   -0.280000	   -0.040000	    0.050000	    9.566406
    8.3063	  0.021500	 -0.037000	  0.997500	   -0.190000	    0.040000	   -0.020000	    9.527344
    8.3163	  0.021500	 -0.037500	  0.996500	   -0.350000	   -0.150000	    0.050000	    9.523438
    8.3263	  0.021500	 -0.036500	  0.997000	   -0.350000	   -0.060000	   -0.020000	    9.558594
    8.3363	  0.022500	 -0.037000	  0.997000	   -0.270000	   -0.060000	    0.020000	    9.578125
    8.3463	  0.021500	 -0.037500	  0.996500	   -0.280000	   -0.130000	   -0.020000	    9.574219
    8.3563	  0.021500	 -0.038500	  0.997000	   -0.350000	   -0.080000	    0.030000	    9.566406
    8.3663	  0.021500	 -0.037000	  0.996000	   -0.260000	   -0.080000	   -0.010000	    9.578125
    8.3765	  0.022500	 -0.037000	  0.996500	   -0.190000	    0.000000	   -0.020000	    9.570313
    8.3863	  0.021000	 -0.037000	  0.996500	   -0.190000	   -0.060000	    0.050000	    9.554688
    8.3963	  0.021000	 -0.037000	  0.996500	   -0.260000	   -0.170000	    0.010000	    9.539063
    8.4063	  0.021000	 -0.037000	  0.996500	   -0.280000	   -0.120000	    0.030000	    9.546875
    8.4163	  0.021000	 -0.036500	  0.996000	   -0.230000	   -0.090000	   -0.040000	    9.554688
    8.4263	  0.021000	 -0.037000	  0.996500	   -0.330000	   -0.030000	    0.060000	    9.566406
    8.4363	  0.021000	 -0.037000	  0.996000	   -0.350000	   -0.080000	    0.030000	    9.527344
    8.4463	  0.021000	 -0.035000	  0.995500	   -0.230000	   -0.220000	   -0.120000	    9.542969
    8.4565	  0.020000	 -0.036500	  0.996500	   -0.250000	   -0.150000	   -0.060000	    9.523438
    8.4663	  0.020000	 -0.036000	  0.995500	   -0.360000	   -0.090000	    0.090000	    9.515625
    8.4763	  0.020500	 -0.035500	  0.996000	   -0.180000	   -0.150000	    0.000000	    9.515625
    8.4863	  0.019500	 -0.036000	  0.995000	   -0.330000	   -0.050000	   -0.070000	    9.531250
    8.4963	  0.019500	 -0.035500	  0.995000	   -0.230000	   -0.090000	    0.100000	    9.531250
    8.5063	  0.020000	 -0.035500	  0.994000	   -0.240000	   -0.120000	   -0.040000	    9.539063
    8.5163	  0.020500	 -0.036000	  0.995000	   -0.330000	   -0.170000	    0.060000	    9.550781
    8.5263	  0.020000	 -0.035500	  0.996000	   -0.260000	   -0.190000	    0.000000	    9.546875
    8.5365	  0.021500	 -0.035000	  0.996000	   -0.240000	   -0.090000	    0.020000	    9.546875
    8.5463	  0.021000	 -0.035500	  0.995500	   -0.270000	   -0.260000	    0.010000	    9.546875
    8.5563	  0.021000	 -0.036500	  0.996000	   -0.220000	   -0.120000	    0.080000	    9.539063
    8.5663	  0.021000	 -0.036000	  0.996500	   -0.380000	   -0.090000	    0.080000	    9.550781
    8.5763	  0.022000	 -0.036000	  0.996000	   -0.260000	   -0.010000	    0.020000	    9.566406
    8.5863	  0.021500	 -0.036000	  0.995000	   -0.270000	   -0.150000	    0.070000	    9.535156
    8.5963	  0.021500	 -0.037000	  0.996500	   -0.330000	   -0.110000	    0.000000	    9.558594
    8.6063	  0.021000	 -0.036500	  0.997000	   -0.250000	   -0.190000	   -0.030000	    9.558594
    8.6165	  0.021500	 -0.037000	  0.995500	   -0.200000	    0.020000	   -0.050000	    9.550781
    8.6263	  0.022500	 -0.036500	  0.997000	   -0.310000	   -0.210000	   -0.030000	    9.566406
    8.6363	  0.022500	 -0.037500	  0.996000	   -0.210000	   -0.100000	   -0.060000	    9.550781
    8.6463	  0.021500	 -0.037500	  0.997500	   -0.230000	   -0.100000	   -0.020000	    9.570313
    8.6563	  0.021500	 -0.038000	  0.997000	   -0.230000	   -0.070000	   -0.040000	    9.566406
    8.6663	  0.022000	 -0.037000	  0.996000	   -0.220000	   -0.040000	   -0.030000	    9.562500
    8.6763	  0.021500	 -0.037500	  0.997000	   -0.250000	   -0.040000	    0.060000	    9.558594
    8.6863	  0.022000	 -0.036000	  0.996500	   -0.190000	   -0.060000	    0.010000	    9.550781
    8.6965	  0.021500	 -0.037500	  0.996500	   -0.150000	   -0.100000	   -0.090000	    9.542969
    8.7063	  0.022000	 -0.036000	  0.996500	   -0.240000	   -0.170000	    0.050000	    9.546875
    8.7163	  0.021500	 -0.036500	  0.995000	   -0.110000	   -0.050000	    0.000000	    9.566406
    8.7263	  0.023000	 -0.036000	  0.995500	   -0.310000	   -0.030000	    0.110000	    9.523438
    8.7363	  0.020500	 -0.036500	  0.994500	   -0.360000	   -0.150000	    0.060000	    9.515625
    8.7463	  0.021000	 -0.036000	  0.995500	   -0.260000	   -0.160000	    0.070000	    9.554688
    8.7563	  0.021000	 -0.036000	  0.995500	   -0.300000	   -0.050000	   -0.020000	    9.554688
    8.7663	  0.021500	 -0.036000	  0.996000	   -0.270000	    0.000000	    0.010000	    9.546875
    8.7765	  0.021000	 -0.036000	  0.995500	   -0.330000	   -0.110000	    0.150000	    9.535156
    8.7863	  0.021500	 -0.036500	  0.995500	   -0.210000	   -0.060000	    0.000000	    9.546875
    8.7963	  0.021000	 -0.036500	  0.997000	   -0.230000	   -0.040000	   -0.070000	    9.539063
    8.8063	  0.021000	 -0.036000	  0.995500	   -0.250000	   -0.110000	    0.030000	    9.562500
    8.8163	  0.021500	 -0.035500	  0.998500	   -0.230000	   -0.160000	    0.010000	    9.574219
    8.8263	  0.020500	 -0.037000	  0.998000	   -0.260000	   -0.080000	    0.020000	    9.562500
    8.8363	  0.020500	 -0.037000	  0.998000	   -0.240000	   -0.220000	    0.020000	    9.558594
    8.8463	  0.020500	 -0.036000	  0.998000	   -0.270000	   -0.010000	    0.070000	    9.570313
    8.8565	  0.020000	 -0.036000	  0.997500	   -0.340000	   -0.130000	   -0.060000	    9.546875
    8.8663	  0.020000	 -0.035000	  0.997500	   -0.250000	   -0.110000	   -0.100000	    9.539063
    8.8763	  0.020500	 -0.037500	  0.996000	   -0.260000	   -0.030000	    0.120000	    9.523438
    8.8863	  0.019000	 -0.034500	  0.998500	   -0.190000	   -0.010000	    0.020000	    9.535156
    8.8963	  0.020500	 -0.039000	  0.995500	   -0.330000	   -0.110000	   -0.070000	    9.542969
    8.9063	  0.019500	 -0.035000	  0.996000	   -0.200000	   -0.110000	   -0.050000	    9.542969
    8.9163	  0.020000	 -0.038000	  0.996000	   -0.250000	   -0.010000	    0.020000	    9.554688
    8.9263	  0.019500	 -0.037000	  0.995500	   -0.250000	   -0.020000	    0.070000	    9.546875
    8.9365	  0.021000	 -0.037000	  0.994500	   -0.220000	   -0.040000	   -0.030000	    9.527344
    8.9463	  0.019500	 -0.038000	  0.995000	   -0.210000	   -0.050000	   -0.040000	    9.542969
    8.9567	  0.020000	 -0.036000	  0.995500	   -0.270000	   -0.140000	    0.010000	    9.527344
    8.9663	  0.020500	 -0.037500	  0.994500	   -0.240000	   -0.080000	    0.060000	    9.523438
    8.9763	  0.020000	 -0.037000	  0.993000	   -0.260000	   -0.040000	   -0.080000	    9.527344
    8.9863	  0.023000	 -0.037000	  0.994500	   -0.250000	   -0.130000	    0.000000	    9.550781
    8.9963	  0.020500	 -0.037500	  0.994500	   -0.200000	   -0.110000	    0.030000	    9.554688
    9.0064	  0.021500	 -0.036500	  0.994000	   -0.300000	   -0.070000	   -0.010000	    9.554688
    9.0165	  0.020500	 -0.037000	  0.993500	   -0.350000	   -0.090000	    0.040000	    9.539063
    9.0263	  0.020500	 -0.036500	  0.995000	   -0.370000	   -0.070000	    0.040000	    9.539063
    9.0363	  0.020500	 -0.037000	  0.995000	   -0.250000	   -0.170000	    0.010000	    9.574219
    9.0463	  0.020500	 -0.034500	  0.994500	   -0.220000	   -0.080000	    0.000000	    9.589844
    9.0563	  0.021000	 -0.036500	  0.997500	   -0.260000	   -0.170000	    0.070000	    9.550781
    9.0663	  0.021500	 -0.035000	  0.996000	   -0.330000	   -0.190000	    0.030000	    9.554688
    9.0763	  0.021500	 -0.034500	  0.998000	   -0.400000	   -0.190000	   -0.020000	    9.542969
    9.0863	  0.021500	 -0.035500	  0.996000	   -0.310000	   -0.180000	   -0.010000	    9.546875
    9.0965	  0.021500	 -0.035000	  0.999500	   -0.270000	   -0.100000	    0.030000	    9.527344
    9.1063	  0.021500	 -0.037500	  0.997500	   -0.330000	   -0.040000	   -0.010000	    9.531250
    9.1163	  0.021500	 -0.037500	  0.998500	   -0.240000	    0.010000	   -0.070000	    9.546875
    9.1263	  0.021500	 -0.036500	  0.997500	   -0.200000	   -0.130000	   -0.040000	    9.554688
    9.1363	  0.022000	 -0.037500	  0.999000	   -0.200000	   -0.120000	    0.040000	    9.535156
    9.1463	  0.021500	 -0.038000	  0.997500	   -0.230000	    0.030000	   -0.030000	    9.550781
    9.1563	  0.024500	 -0.036500	  0.997000	   -0.170000	   -0.160000	   -0.070000	    9.550781
    9.1663	  0.022500	 -0.035000	  0.994500	   -0.420000	   -0.150000	   -0.050000	    9.550781
    9.1765	  0.022000	 -0.038000	  0.997000	   -0.210000	   -0.040000	   -0.040000	    9.554688
    9.1863	  0.023000	 -0.039500	  0.996500	   -0.260000	   -0.120000	    0.040000	    9.585938
    9.1963	  0.023500	 -0.037000	  0.994500	   -0.260000	   -0.110000	    0.000000	    9.566406
    9.2063	  0.022500	 -0.037000	  0.995500	   -0.360000	   -0.170000	    0.000000	    9.535156
    9.2163	  0.020500	 -0.035000	  0.995000	   -0.260000	   -0.230000	    0.070000	    9.550781
    9.2263	  0.021500	 -0.036000	  0.992500	   -0.270000	   -0.130000	    0.020000	    9.554688
    9.2363	  0.021000	 -0.037000	  0.995000	   -0.320000	   -0.160000	    0.060000	    9.554688
    9.2463	  0.023000	 -0.035000	  0.992500	   -0.260000	   -0.040000	   -0.090000	    9.546875
    9.2565	  0.020000	 -0.036000	  0.993000	   -0.270000	   -0.060000	   -0.020000	    9.535156
    9.2663	  0.021000	 -0.034000	  0.996000	   -0.360000	   -0.140000	   -0.060000	    9.550781
    9.2763	  0.021000	 -0.036000	  0.993500	   -0.270000	   -0.090000	    0.060000	    9.566406
    9.2863	  0.021000	 -0.035500	  0.996000	   -0.220000	   -0.200000	    0.010000	    9.546875
    9.2963	  0.020500	 -0.033500	  0.996000	   -0.350000	   -0.160000	    0.020000	    9.531250
    9.3063	  0.019500	 -0.035500	  0.994500	   -0.310000	   -0.140000	    0.040000	    9.554688
    9.3163	  0.021500	 -0.035500	  0.997000	   -0.300000	   -0.100000	    0.070000	    9.535156
    9.3263	  0.019500	 -0.036000	  0.996000	   -0.270000	   -0.110000	   -0.010000	    9.539063
    9.3365	  0.021500	 -0.035000	  0.997000	   -0.250000	   -0.130000	    0.150000	    9.542969
    9.3463	  0.021500	 -0.038000	  0.997000	   -0.310000	   -0.160000	    0.020000	    9.562500
    9.3563	  0.022000	 -0.036000	  0.995500	   -0.240000	   -0.130000	    0.070000	    9.550781
    9.3663	  0.022500	 -0.037500	  0.999500	   -0.260000	    0.050000	    0.000000	    9.554688
    9.3763	  0.023000	 -0.037500	  0.997000	   -0.280000	   -0.160000	    0.050000	    9.546875
    9.3863	  0.021500	 -0.037500	  0.998000	   -0.240000	   -0.180000	    0.090000	    9.546875
    9.3963	  0.022500	 -0.038500	  0.997000	   -0.310000	   -0.180000	   -0.010000	    9.535156
    9.4063	  0.022500	 -0.036500	  0.996500	   -0.300000	   -0.050000	    0.140000	    9.542969
    9.4165	  0.022000	 -0.037500	  0.995000	   -0.210000	   -0.150000	    0.080000	    9.542969
    9.4263	  0.022000	 -0.037500	  0.996500	   -0.300000	   -0.140000	    0.150000	    9.562500
    9.4363	  0.022000	 -0.037000	  0.995000	   -0.220000	   -0.110000	    0.040000	    9.562500
    9.4463	  0.021000	 -0.037500	  0.996000	   -0.190000	   -0.020000	    0.090000	    9.535156
    9.4563	  0.021000	 -0.035500	  0.996000	   -0.230000	   -0.060000	    0.030000	    9.554688
    9.4663	  0.021000	 -0.035500	  0.995500	   -0.240000	   -0.080000	    0.060000	    9.558594
    9.4763	  0.021000	 -0.036000	  0.994000	   -0.380000	   -0.210000	    0.130000	    9.539063
    9.4863	  0.020000	 -0.034000	  0.996000	   -0.250000	    0.000000	    0.060000	    9.539063
    9.4965	  0.021500	 -0.037000	  0.995000	   -0.280000	   -0.090000	    0.110000	    9.523438
    9.5063	  0.018500	 -0.036000	  0.995000	   -0.320000	   -0.120000	    0.140000	    9.542969
    9.5163	  0.017500	 -0.033500	  0.994500	   -0.310000	   -0.140000	    0.140000	    9.574219
    9.5263	  0.021000	 -0.038000	  0.994500	   -0.430000	   -0.260000	    0.140000	    9.566406
    9.5363	  0.021500	 -0.036000	  0.997000	   -0.310000	   -0.090000	    0.150000	    9.546875
    9.5463	  0.021500	 -0.036500	  0.992000	   -0.270000	   -0.170000	    0.080000	    9.554688
    9.5563	  0.018000	 -0.037000	  0.995500	   -0.350000	   -0.130000	    0.040000	    9.539063
    9.5663	  0.019500	 -0.037500	  0.995500	   -0.320000	   -0.110000	    0.150000	    9.550781
    9.5765	  0.020000	 -0.038000	  0.997000	   -0.290000	   -0.100000	    0.140000	    9.535156
    9.5863	  0.021500	 -0.037000	  0.992000	   -0.230000	   -0.120000	    0.110000	    9.539063
    9.5963	  0.024000	 -0.039500	  0.998500	   -0.320000	   -0.190000	    0.090000	    9.539063
    9.6063	  0.020000	 -0.040000	  0.996000	   -0.250000	   -0.080000	    0.100000	    9.570313
    9.6163	  0.021000	 -0.038500	  0.998500	   -0.280000	   -0.120000	    0.160000	    9.574219
    9.6263	  0.022500	 -0.040000	  0.995500	   -0.260000	   -0.100000	    0.220000	    9.558594
    9.6363	  0.023500	 -0.041000	  0.999000	   -0.230000	   -0.170000	    0.130000	    9.562500
    9.6463	  0.022000	 -0.039500	  0.996500	   -0.270000	   -0.190000	    0.230000	    9.539063
    9.6565	  0.020500	 -0.040500	  0.995500	   -0.190000	   -0.070000	    0.190000	    9.535156
    9.6663	  0.022500	 -0.041500	  0.999000	   -0.320000	   -0.150000	    0.160000	    9.546875
    9.6763	  0.022500	 -0.038000	  0.997500	   -0.250000	   -0.130000	    0.080000	    9.539063
    9.6863	  0.021500	 -0.037500	  0.996000	   -0.220000	   -0.150000	    0.080000	    9.542969
    9.6963	  0.021500	 -0.038500	  0.996000	   -0.250000	   -0.230000	    0.180000	    9.546875
    9.7063	  0.019500	 -0.040000	  0.997000	   -0.260000	   -0.190000	    0.070000	    9.546875
    9.7163	  0.020000	 -0.044500	  0.990500	   -0.180000	   -0.250000	    0.160000	    9.542969
    9.7263	  0.017500	 -0.053000	  0.978500	   -0.300000	   -0.180000	    0.060000	    9.527344
    9.7365	  0.018000	 -0.059500	  0.978500	   -0.460000	   -0.210000	    0.170000	    9.546875
    9.7463	  0.017500	 -0.063500	  0.979000	   -0.410000	   -0.230000	    0.120000	    9.527344
    9.7563	  0.014000	 -0.065500	  0.975000	   -0.470000	   -0.220000	    0.160000	    9.535156
    9.7663	  0.013500	 -0.068000	  0.973500	   -0.720000	   -0.250000	    0.190000	    9.554688
    9.7763	  0.012000	 -0.073500	  0.972500	   -0.690000	   -0.240000	    0.250000	    9.554688
    9.7863	  0.012000	 -0.078500	  0.970000	   -0.880000	   -0.240000	    0.250000	    9.566406
    9.7963	  0.014500	 -0.081000	  0.974000	   -0.940000	   -0.340000	    0.470000	    9.550781
    9.8064	  0.015500	 -0.084500	  0.972500	   -1.000000	   -0.200000	    0.350000	    9.574219
    9.8165	  0.018500	 -0.090500	  0.975000	   -0.970000	   -0.240000	    0.670000	    9.542969
    9.8263	  0.018000	 -0.096000	  0.971500	   -1.000000	   -0.190000	    0.500000	    9.539063
    9.8363	  0.016500	 -0.102000	  0.970500	   -1.100000	   -0.070000	    0.500000	    9.562500
    9.8463	  0.022500	 -0.107000	  0.973500	   -1.300000	   -0.160000	    0.560000	    9.546875
    9.8563	  0.024500	 -0.112000	  0.974000	   -1.240000	   -0.070000	    0.510000	    9.539063
    9.8663	  0.025000	 -0.113500	  0.975500	   -1.210000	    0.000000	    0.550000	    9.550781
    9.8763	  0.028500	 -0.117500	  0.974000	   -1.280000	    0.090000	    0.590000	    9.554688
    9.8863	  0.029500	 -0.122500	  0.974000	   -1.240000	    0.030000	    0.710000	    9.566406
    9.8965	  0.028500	 -0.128000	  0.978500	   -1.360000	    0.170000	    0.660000	    9.578125
    9.9063	  0.029000	 -0.130500	  0.975500	   -1.340000	    0.220000	    0.600000	    9.562500
    9.9163	  0.032000	 -0.131500	  0.980000	   -1.450000	    0.110000	    0.750000	    9.550781
    9.9263	  0.032000	 -0.134500	  0.982000	   -1.420000	    0.060000	    0.760000	    9.542969
    9.9363	  0.031500	 -0.137000	  0.987000	   -1.440000	    0.320000	    0.550000	    9.542969
    9.9463	  0.035000	 -0.138500	  0.987500	   -1.520000	    0.230000	    0.590000	    9.523438
    9.9567	  0.030500	 -0.142500	  0.987000	   -1.600000	    0.360000	    0.520000	    9.511719
    9.9663	  0.027500	 -0.145000	  0.990000	   -1.640000	    0.140000	    0.700000	    9.527344
    9.9765	  0.027500	 -0.148500	  0.993000	   -1.540000	    0.200000	    0.500000	    9.539063
    9.9863	  0.025500	 -0.149000	  0.992500	   -1.460000	    0.330000	    0.540000	    9.562500
    9.9963	  0.022000	 -0.154000	  0.996500	   -1.450000	    0.310000	    0.550000	    9.539063
   10.0064	  0.020000	 -0.155000	  1.000000	   -1.470000	    0.320000	    0.580000	    9.562500
   10.0163	  0.015000	 -0.156500	  1.002000	   -1.470000	    0.200000	    0.710000	    9.582031
   10.0263	  0.015000	 -0.159500	  1.004500	   -1.570000	    0.160000	    0.720000	    9.566406
   10.0363	  0.013000	 -0.159000	  1.008500	   -1.430000	    0.300000	    0.810000	    9.546875
   10.0463	  0.010500	 -0.159500	  1.011500	   -1.370000	    0.150000	    0.800000	    9.550781
   10.0565	  0.009500	 -0.159000	  1.015500	   -1.460000	    0.180000	    0.800000	    9.554688
   10.0663	  0.007000	 -0.161500	  1.018000	   -1.360000	    0.180000	    0.940000	    9.554688
   10.0763	  0.003000	 -0.157000	  1.022000	   -1.160000	   -0.050000	    0.950000	    9.566406
   10.0863	  0.003000	 -0.158000	  1.023000	   -1.250000	    0.090000	    1.030000	    9.550781
   10.0963	  0.004500	 -0.159500	  1.027000	   -1.110000	   -0.140000	    1.170000	    9.546875
   10.1063	  0.005000	 -0.157500	  1.026000	   -1.030000	   -0.050000	    1.240000	    9.539063
   10.1163	  0.003000	 -0.158000	  1.029500	   -0.910000	   -0.210000	    1.250000	    9.542969
   10.1263	  0.007000	 -0.159500	  1.032000	   -0.860000	   -0.320000	    1.500000	    9.562500
   10.1365	  0.007000	 -0.157500	  1.031500	   -0.720000	   -0.280000	    1.520000	    9.566406
   10.1463	  0.007500	 -0.157000	  1.032000	   -0.520000	   -0.450000	    1.510000	    9.550781
   10.1563	  0.007000	 -0.157000	  1.031000	   -0.470000	   -0.600000	    1.710000	    9.527344
   10.1663	  0.007000	 -0.157500	  1.028500	   -0.250000	   -0.610000	    1.890000	    9.527344
   10.1763	  0.010000	 -0.159000	  1.022500	    0.010000	   -0.700000	    1.760000	    9.566406
   10.1863	  0.005500	 -0.154000	  1.018000	    0.010000	   -0.570000	    1.960000	    9.535156
   10.1963	  0.009000	 -0.153500	  1.017000	   -0.010000	   -0.810000	    2.100000	    9.535156
   10.2064	  0.014500	 -0.152500	  1.005000	    0.160000	   -0.860000	    2.170000	    9.539063
   10.2165	  0.019000	 -0.149500	  0.997500	    0.140000	   -0.790000	    2.200000	    9.554688
   10.2263	  0.020000	 -0.150000	  0.999000	    0.060000	   -0.680000	    2.400000	    9.558594
   10.2364	  0.022000	 -0.152500	  0.994500	    0.310000	   -0.770000	    2.400000	    9.554688
   10.2463	  0.029500	 -0.147500	  0.982000	    0.130000	   -0.680000	    2.450000	    9.542969
   10.2563	  0.029000	 -0.148000	  0.981500	    0.150000	   -0.670000	    2.480000	    9.566406
   10.2663	  0.028500	 -0.147500	  0.981500	   -0.040000	   -0.650000	    2.600000	    9.554688
   10.2763	  0.032500	 -0.149000	  0.978500	   -0.050000	   -0.630000	    2.760000	    9.535156
   10.2863	  0.033000	 -0.146500	  0.974000	   -0.010000	   -0.460000	    2.760000	    9.546875
   10.2965	  0.035000	 -0.148500	  0.972500	   -0.270000	   -0.510000	    2.780000	    9.539063
   10.3064	  0.036000	 -0.150000	  0.976500	   -0.390000	   -0.380000	    2.850000	    9.531250
   10.3163	  0.036000	 -0.152500	  0.980000	   -0.470000	   -0.440000	    2.920000	    9.550781
   10.3263	  0.037000	 -0.155000	  0.979000	   -0.440000	   -0.610000	    3.060000	    9.554688
   10.3363	  0.043500	 -0.153500	  0.979000	   -0.400000	   -0.480000	    2.910000	    9.546875
   10.3463	  0.046500	 -0.155500	  0.985000	   -0.570000	   -0.660000	    3.120000	    9.554688
   10.3563	  0.041000	 -0.154500	  0.982500	   -0.420000	   -0.570000	    3.150000	    9.539063
   10.3663	  0.045500	 -0.157000	  0.987000	   -0.350000	   -0.580000	    3.200000	    9.578125
   10.3765	  0.044000	 -0.155500	  0.987500	   -0.340000	   -0.720000	    3.330000	    9.578125
   10.3863	  0.039500	 -0.158500	  0.991000	   -0.270000	   -0.780000	    3.180000	    9.550781
   10.3963	  0.039000	 -0.163000	  0.986500	   -0.310000	   -0.650000	    3.350000	    9.542969
   10.4064	  0.033500	 -0.160000	  0.989500	   -0.280000	   -0.550000	    3.430000	    9.554688
   10.4163	  0.023500	 -0.163000	  1.000500	   -0.330000	   -0.600000	    3.540000	    9.542969
   10.4263	  0.022000	 -0.159500	  0.997000	   -0.070000	   -0.550000	    3.760000	    9.546875
   10.4363	  0.019500	 -0.154000	  0.991000	   -0.020000	   -0.500000	    3.920000	    9.578125
   10.4463	  0.017000	 -0.155500	  1.003500	   -0.230000	   -0.430000	    4.090000	    9.562500
   10.4565	  0.012000	 -0.152000	  0.997500	    0.210000	   -0.450000	    4.290000	    9.531250
   10.4663	  0.007500	 -0.156000	  0.989000	    0.170000	   -0.520000	    4.460000	    9.566406
   10.4763	  0.004000	 -0.158500	  0.983500	    0.180000	   -0.510000	    4.670000	    9.570313
   10.4863	  0.003500	 -0.160500	  0.974500	    0.320000	   -0.780000	    4.920000	    9.570313
   10.4963	  0.010500	 -0.151500	  0.967000	    0.260000	   -0.570000	    4.970000	    9.539063
   10.5064	  0.009000	 -0.152000	  0.961000	    0.020000	   -0.500000	    5.160000	    9.546875
   10.5163	  0.011500	 -0.153500	  0.970500	   -0.160000	   -0.430000	    5.410000	    9.546875
   10.5263	  0.007000	 -0.155000	  0.970000	   -0.150000	   -0.330000	    5.490000	    9.558594
   10.5365	 -0.000500	 -0.153500	  0.968000	   -0.140000	   -0.290000	    5.730000	    9.570313
   10.5463	  0.004000	 -0.146000	  0.973000	   -0.450000	   -0.250000	    5.910000	    9.562500
   10.5563	  0.002000	 -0.151000	  0.977000	   -0.460000	   -0.150000	    6.040000	    9.554688
   10.5663	  0.004000	 -0.158500	  0.986000	   -0.530000	   -0.150000	    6.210000	    9.550781
   10.5763	  0.003000	 -0.156000	  0.977500	   -0.340000	   -0.130000	    6.340000	    9.574219
   10.5863	 -0.000500	 -0.153000	  0.988000	   -0.950000	   -0.170000	    6.640000	    9.574219
   10.5963	  0.006500	 -0.154500	  1.003000	   -0.700000	   -0.290000	    6.790000	    9.574219
   10.6064	  0.016000	 -0.142500	  0.992500	   -0.400000	   -0.220000	    6.880000	    9.542969
   10.6165	  0.018000	 -0.142500	  0.979500	   -0.750000	   -0.050000	    7.150000	    9.535156
   10.6263	  0.026500	 -0.146000	  0.991500	   -0.930000	   -0.140000	    7.180000	    9.554688
   10.6363	  0.033000	 -0.146000	  0.987000	   -0.810000	   -0.240000	    7.280000	    9.546875
   10.6463	  0.042500	 -0.139000	  1.006000	   -1.150000	   -0.170000	    7.270000	    9.546875
   10.6563	  0.038500	 -0.148000	  1.010500	   -1.100000	   -0.350000	    7.340000	    9.531250
   10.6663	  0.051000	 -0.141000	  1.014500	   -0.620000	   -0.500000	    7.240000	    9.554688
   10.6763	  0.055000	 -0.138000	  0.998000	   -0.780000	   -0.520000	    7.300000	    9.546875
   10.6863	  0.037000	 -0.132500	  1.025500	   -1.210000	   -0.500000	    7.340000	    9.546875
   10.6965	  0.028000	 -0.137500	  1.026000	   -0.790000	   -0.670000	    7.470000	    9.570313
   10.7064	  0.042500	 -0.148500	  1.022500	   -0.440000	   -0.850000	    7.590000	    9.558594
   10.7163	  0.036500	 -0.147500	  1.010000	   -0.650000	   -0.800000	    7.500000	    9.542969
   10.7263	  0.028500	 -0.132500	  1.003500	   -0.630000	   -0.830000	    7.660000	    9.566406
   10.7363	  0.023500	 -0.147000	  0.995000	   -0.310000	   -1.040000	    7.860000	    9.585938
   10.7463	  0.038500	 -0.158000	  0.996500	   -0.510000	   -0.920000	    7.810000	    9.558594
   10.7563	  0.050500	 -0.154000	  0.991500	   -0.650000	   -0.810000	    8.010000	    9.535156
   10.7663	  0.036000	 -0.151500	  0.972000	   -0.510000	   -0.810000	    8.050000	    9.535156
   10.7765	  0.046000	 -0.158500	  0.996500	   -0.740000	   -0.750000	    8.120000	    9.542969
   10.7863	  0.054000	 -0.167500	  0.978000	   -0.610000	   -0.780000	    8.220000	    9.527344
   10.7963	  0.050000	 -0.158000	  0.958500	   -0.500000	   -0.790000	    8.230000	    9.539063
   10.8064	  0.065000	 -0.155000	  0.952000	   -0.710000	   -0.690000	    8.280000	    9.546875
   10.8163	  0.068500	 -0.155500	  0.967500	   -1.210000	   -0.520000	    8.340000	    9.546875
   10.8263	  0.063500	 -0.162000	  0.972500	   -0.940000	   -0.640000	    8.220000	    9.558594
   10.8363	  0.066500	 -0.163000	  0.973000	   -0.950000	   -0.780000	    8.170000	    9.566406
   10.8463	  0.081000	 -0.154500	  1.011000	   -1.290000	   -0.530000	    8.200000	    9.546875
   10.8566	  0.068500	 -0.163500	  1.020500	   -1.000000	   -0.510000	    8.070000	    9.546875
   10.8664	  0.054500	 -0.171500	  1.025500	   -0.640000	   -0.470000	    8.050000	    9.554688
   10.8763	  0.073500	 -0.160500	  1.026000	   -0.580000	   -0.650000	    8.010000	    9.539063
   10.8863	  0.052000	 -0.153500	  1.018000	   -0.270000	   -0.320000	    7.990000	    9.554688
   10.8963	  0.040500	 -0.147500	  1.008000	   -0.490000	   -0.400000	    7.860000	    9.539063
   10.9063	  0.044500	 -0.158500	  0.999000	   -0.480000	   -0.480000	    8.030000	    9.523438
   10.9163	  0.039500	 -0.163500	  1.010000	   -0.400000	   -0.430000	    8.160000	    9.523438
   10.9263	  0.023500	 -0.152000	  0.978500	   -0.150000	   -0.460000	    8.230000	    9.566406
   10.9365	  0.029000	 -0.155000	  0.984500	   -0.290000	   -0.390000	    8.320000	    9.554688
   10.9463	  0.006500	 -0.155500	  0.986500	   -0.390000	   -0.190000	    8.490000	    9.542969
   10.9567	  0.009000	 -0.153500	  0.972000	    0.260000	   -0.380000	    8.660000	    9.554688
   10.9663	  0.023500	 -0.139500	  0.940000	   -0.060000	   -0.170000	    8.790000	    9.546875
   10.9764	  0.042500	 -0.150000	  0.970000	   -1.080000	    0.310000	    9.040000	    9.542969
   10.9863	  0.029000	 -0.159000	  1.002500	   -0.970000	    0.340000	    9.280000	    9.542969
   10.9963	  0.026500	 -0.160000	  1.017000	   -0.300000	   -0.020000	    9.360000	    9.550781
   11.0064	  0.050500	 -0.146500	  0.999500	   -0.130000	    0.120000	    9.500000	    9.535156
   11.0166	  0.057000	 -0.155000	  1.005500	   -0.450000	    0.460000	    9.490000	    9.546875
   11.0263	  0.061000	 -0.158500	  1.022000	   -0.340000	    0.280000	    9.670000	    9.539063
   11.0363	  0.075500	 -0.151000	  1.027000	    0.080000	    0.160000	    9.550000	    9.542969
   11.0463	  0.073000	 -0.152000	  1.013000	    0.230000	    0.090000	    9.470000	    9.562500
   11.0563	  0.058500	 -0.149500	  1.016000	    0.080000	   -0.130000	    9.510000	    9.550781
   11.0663	  0.055000	 -0.150000	  1.004000	    0.490000	   -0.420000	    9.490000	    9.539063
   11.0763	  0.060500	 -0.152500	  0.998000	    0.240000	   -0.560000	    9.460000	    9.558594
   11.0863	  0.058500	 -0.131500	  1.008500	   -0.240000	   -0.500000	    9.580000	    9.558594
   11.0966	  0.061500	 -0.136500	  1.014500	   -0.130000	   -0.330000	    9.680000	    9.539063
   11.1064	  0.059500	 -0.132500	  1.005500	    0.380000	   -0.320000	    9.760000	    9.539063
   11.1164	  0.041500	 -0.122000	  0.996000	   -0.060000	   -0.200000	    9.820000	    9.542969
   11.1263	  0.044500	 -0.122000	  0.972000	   -0.040000	   -0.050000	    9.920000	    9.550781
   11.1363	  0.068500	 -0.123500	  0.960500	   -0.040000	    0.050000	    9.950000	    9.539063
   11.1464	  0.068000	 -0.127000	  0.966000	   -0.500000	    0.470000	   10.130000	    9.546875
   11.1563	  0.037500	 -0.128500	  0.962500	   -0.510000	    0.900000	   10.170000	    9.562500
   11.1663	  0.029000	 -0.113500	  0.965500	   -0.370000	    1.110000	   10.350000	    9.566406
   11.1766	  0.018000	 -0.133500	  0.972000	   -0.820000	    1.580000	   10.570000	    9.558594
   11.1863	  0.023500	 -0.145500	  0.988000	   -1.050000	    1.570000	   10.690000	    9.558594
   11.1963	  0.043000	 -0.123500	  0.970000	   -0.570000	    1.790000	   10.940000	    9.550781
   11.2064	  0.045000	 -0.153000	  0.963000	   -0.870000	    2.220000	   11.050000	    9.546875
   11.2164	  0.031000	 -0.156500	  1.001000	   -1.360000	    2.710000	   11.100000	    9.562500
   11.2264	 -0.008000	 -0.127000	  1.008000	   -1.320000	    2.470000	   11.200000	    9.554688
   11.2363	  0.003000	 -0.162000	  0.991500	   -0.550000	    2.040000	   11.410000	    9.539063
   11.2463	  0.033500	 -0.158500	  0.984000	   -1.120000	    1.890000	   11.650000	    9.562500
   11.2566	  0.039000	 -0.166500	  0.990500	   -1.180000	    1.660000	   11.720000	    9.539063
   11.2664	  0.038000	 -0.153000	  0.961000	   -0.480000	    1.220000	   11.790000	    9.550781
   11.2763	  0.057500	 -0.144500	  0.962500	   -0.760000	    1.080000	   11.780000	    9.554688
   11.2863	  0.027500	 -0.163000	  0.950000	   -1.160000	    0.830000	   11.770000	    9.570313
   11.2963	  0.022000	 -0.148000	  0.984500	   -1.100000	    0.420000	   11.870000	    9.539063
   11.3064	  0.012500	 -0.160000	  0.964000	   -1.020000	   -0.090000	   12.000000	    9.554688
   11.3164	  0.037000	 -0.169500	  1.008500	   -1.330000	   -0.420000	   11.930000	    9.539063
   11.3264	  0.056500	 -0.178000	  1.023500	   -0.880000	   -0.730000	   11.890000	    9.542969
   11.3366	  0.059500	 -0.179000	  1.004000	   -0.520000	   -0.960000	   11.800000	    9.531250
   11.3464	  0.061000	 -0.169500	  0.987500	   -0.060000	   -1.010000	   11.870000	    9.539063
   11.3564	  0.049500	 -0.155500	  0.961000	   -0.300000	   -0.900000	   11.760000	    9.539063
   11.3664	  0.035000	 -0.156000	  0.960500	   -0.640000	   -0.760000	   12.060000	    9.531250
   11.3764	  0.041500	 -0.163000	  0.950500	   -0.830000	   -0.890000	   12.040000	    9.531250
   11.3864	  0.060500	 -0.166500	  0.957500	   -0.670000	   -0.900000	   12.020000	    9.542969
   11.3964	  0.054500	 -0.171000	  0.955500	   -0.640000	   -0.910000	   11.990000	    9.562500
   11.4064	  0.052000	 -0.163500	  0.974000	   -0.890000	   -1.030000	   11.770000	    9.546875
   11.4166	  0.044500	 -0.155500	  0.963000	   -1.170000	   -1.010000	   11.980000	    9.539063
   11.4264	  0.035000	 -0.171000	  0.990500	   -1.120000	   -1.150000	   11.910000	    9.570313
   11.4364	  0.045000	 -0.177500	  0.999500	   -0.810000	   -1.060000	   11.960000	    9.542969
   11.4464	  0.079000	 -0.154000	  0.986500	   -1.000000	   -1.090000	   11.870000	    9.546875
   11.4564	  0.047000	 -0.156500	  1.012500	   -0.790000	   -0.990000	   11.700000	    9.546875
   11.4664	  0.029000	 -0.158500	  1.009500	   -0.710000	   -1.120000	   11.800000	    9.539063
   11.4764	  0.066500	 -0.163000	  0.986000	   -0.270000	   -1.200000	   11.980000	    9.539063
   11.4864	  0.038500	 -0.154000	  0.959500	   -0.490000	   -1.070000	   11.860000	    9.546875
   11.4966	  0.055000	 -0.154500	  0.979500	   -1.080000	   -1.000000	   11.900000	    9.546875
   11.5064	  0.058000	 -0.155000	  0.992500	   -1.100000	   -1.200000	   11.910000	    9.550781
   11.5164	  0.057000	 -0.162000	  0.999000	   -0.670000	   -1.120000	   11.890000	    9.550781
   11.5264	  0.044000	 -0.175000	  0.972500	   -0.530000	   -0.950000	   11.820000	    9.558594
   11.5364	  0.081000	 -0.154000	  1.016500	   -1.180000	   -0.860000	   11.920000	    9.574219
   11.5464	  0.090500	 -0.144500	  1.008500	   -0.670000	   -0.940000	   11.970000	    9.570313
   11.5564	  0.044500	 -0.158500	  1.013000	   -0.510000	   -0.730000	   11.950000	    9.558594
   11.5664	  0.076500	 -0.175000	  0.974000	   -0.260000	   -0.750000	   12.050000	    9.554688
   11.5766	  0.068000	 -0.153500	  0.954500	   -0.790000	   -0.680000	   11.840000	    9.542969
   11.5864	  0.031500	 -0.151000	  0.995000	   -1.340000	   -0.630000	   11.990000	    9.546875
   11.5964	  0.025500	 -0.169000	  1.013500	   -0.870000	   -0.920000	   12.110000	    9.562500
   11.6064	  0.059000	 -0.174000	  0.970000	   -0.050000	   -0.810000	   12.260000	    9.558594
   11.6164	  0.037000	 -0.157000	  0.985500	   -1.370000	   -0.220000	   12.460000	    9.582031
   11.6264	  0.038000	 -0.168000	  1.028000	   -1.190000	   -0.180000	   12.540000	    9.578125
   11.6364	  0.049500	 -0.150500	  1.021500	    0.010000	   -0.350000	   12.630000	    9.558594
   11.6464	  0.051500	 -0.131000	  0.982500	   -0.520000	   -0.320000	   12.880000	    9.554688
   11.6566	  0.019000	 -0.151500	  1.043000	   -1.500000	   -0.510000	   12.770000	    9.566406
   11.6664	  0.053500	 -0.161000	  1.031000	   -0.230000	   -1.010000	   13.000000	    9.566406
   11.6764	  0.052000	 -0.136000	  0.974000	    0.100000	   -1.180000	   13.130000	    9.574219
   11.6864	  0.044500	 -0.164500	  1.017500	   -0.840000	   -0.800000	   13.280000	    9.570313
   11.6964	  0.069000	 -0.160000	  1.023500	   -0.850000	   -1.330000	   13.170000	    9.554688
   11.7064	  0.088500	 -0.151000	  1.031500	   -0.300000	   -1.560000	   13.290000	    9.539063
   11.7164	  0.084000	 -0.189000	  1.003500	   -0.370000	   -1.640000	   13.210000	    9.554688
   11.7264	  0.085000	 -0.191000	  1.030500	   -0.290000	   -1.580000	   12.920000	    9.554688
   11.7366	  0.068000	 -0.177000	  0.977000	    0.430000	   -1.820000	   13.080000	    9.578125
   11.7464	  0.084500	 -0.159500	  0.971500	   -0.110000	   -1.780000	   12.990000	    9.562500
   11.7564	  0.117000	 -0.178000	  0.986500	   -0.070000	   -1.610000	   12.880000	    9.562500
   11.7664	  0.093000	 -0.155500	  0.973000	   -0.310000	   -1.100000	   12.860000	    9.562500
   11.7764	  0.079000	 -0.174500	  0.983000	   -0.200000	   -1.180000	   12.690000	    9.546875
   11.7864	  0.106500	 -0.170000	  0.988500	    0.230000	   -1.080000	   12.540000	    9.546875
   11.7964	  0.091000	 -0.159000	  0.957500	    0.220000	   -0.470000	   12.580000	    9.539063
   11.8064	  0.043500	 -0.159000	  0.958000	   -0.580000	   -0.440000	   12.570000	    9.554688
   11.8166	  0.091000	 -0.164500	  0.980000	   -0.370000	   -0.620000	   12.380000	    9.570313
   11.8264	  0.070000	 -0.186500	  0.973500	   -0.120000	   -0.420000	   12.350000	    9.570313
   11.8364	  0.044000	 -0.125000	  1.029500	   -0.800000	   -0.200000	   12.490000	    9.566406
   11.8464	  0.071500	 -0.164500	  1.020500	    0.290000	   -0.520000	   12.520000	    9.539063
   11.8564	  0.069500	 -0.160500	  1.028000	    0.310000	   -0.210000	   12.440000	    9.554688
   11.8664	  0.070000	 -0.166000	  0.998500	    0.250000	   -0.050000	   12.710000	    9.539063
   11.8764	  0.059000	 -0.143500	  0.988500	    0.390000	   -0.280000	   12.640000	    9.523438
   11.8864	  0.062000	 -0.172500	  0.994000	    0.370000	   -0.850000	   12.480000	    9.550781
   11.8966	  0.037000	 -0.138500	  1.020500	   -0.010000	   -0.770000	   12.660000	    9.554688
   11.9064	  0.021000	 -0.165500	  0.989000	    0.460000	   -1.040000	   12.790000	    9.546875
   11.9164	  0.011000	 -0.109500	  1.060500	    0.260000	   -0.920000	   13.010000	    9.550781
   11.9264	  0.010500	 -0.161000	  1.067000	    0.530000	   -1.080000	   13.200000	    9.539063
   11.9364	 -0.022500	 -0.158500	  1.046500	    1.280000	   -1.140000	   13.560000	    9.539063
   11.9464	  0.013500	 -0.133000	  0.960500	    1.920000	   -1.210000	   13.890000	    9.542969
   11.9568	  0.027000	 -0.127000	  0.983500	    0.730000	   -0.850000	   14.030000	    9.554688
   11.9664	  0.033000	 -0.170500	  0.977500	    0.600000	   -1.010000	   14.300000	    9.558594
   11.9766	  0.100000	 -0.148000	  0.953000	    1.290000	   -0.770000	   14.410000	    9.554688
   11.9864	  0.143000	 -0.121500	  0.976500	    0.190000	   -0.370000	   14.310000	    9.558594
   11.9964	  0.126500	 -0.161000	  1.035000	   -0.280000	    0.090000	   14.030000	    9.542969
   12.0064	  0.165000	 -0.171500	  1.057000	    1.340000	    0.150000	   13.620000	    9.535156
   12.0164	  0.140000	 -0.170500	  0.937500	    1.840000	    0.480000	   13.400000	    9.554688
   12.0264	  0.128000	 -0.183500	  0.995500	    0.480000	    0.920000	   12.980000	    9.542969
   12.0364	  0.056000	 -0.203000	  0.959500	    0.900000	    0.390000	   13.030000	    9.562500
   12.0464	  0.069500	 -0.144000	  0.937500	    1.410000	    0.150000	   13.160000	    9.546875
   12.0566	  0.096000	 -0.132000	  0.907500	    0.680000	    0.500000	   13.550000	    9.546875
   12.0664	  0.130500	 -0.218000	  0.932500	   -0.490000	    1.450000	   13.560000	    9.554688
   12.0764	  0.142500	 -0.179500	  0.917000	    0.220000	    1.470000	   13.240000	    9.554688
   12.0864	  0.105500	 -0.145000	  0.910500	    0.770000	    0.970000	   13.110000	    9.535156
   12.0964	  0.121500	 -0.164500	  0.953000	   -1.020000	    0.750000	   12.960000	    9.519531
   12.1064	  0.127000	 -0.163500	  0.965000	   -1.040000	    0.260000	   12.830000	    9.550781
   12.1164	  0.123500	 -0.163000	  0.942000	    0.260000	   -0.170000	   12.810000	    9.546875
   12.1264	  0.128500	 -0.151000	  0.968500	   -0.490000	   -0.080000	   12.620000	    9.542969
   12.1366	  0.135000	 -0.172500	  0.975000	   -1.230000	   -0.340000	   12.310000	    9.550781
   12.1464	  0.087000	 -0.126500	  0.983500	   -0.350000	   -1.000000	   12.100000	    9.562500
   12.1564	  0.075000	 -0.150500	  0.986500	   -0.800000	   -0.970000	   12.080000	    9.539063
   12.1664	  0.103500	 -0.105000	  0.986000	   -1.050000	   -0.570000	   12.140000	    9.558594
   12.1764	  0.066500	 -0.156500	  1.003500	   -1.210000	   -0.230000	   12.190000	    9.554688
   12.1864	  0.017500	 -0.129500	  1.027500	   -0.920000	   -0.140000	   12.130000	    9.539063
   12.1964	  0.013000	 -0.144500	  1.034000	   -0.790000	   -0.480000	   12.290000	    9.546875
   12.2064	  0.001000	 -0.147000	  0.989500	   -0.450000	   -0.630000	   12.550000	    9.539063
   12.2166	 -0.006000	 -0.167500	  0.991500	   -0.700000	    0.080000	   12.890000	    9.542969
   12.2264	  0.012000	 -0.177000	  1.010500	   -0.860000	    0.420000	   13.160000	    9.558594
   12.2364	  0.018500	 -0.185000	  1.002000	   -0.020000	    0.540000	   13.320000	    9.554688
   12.2465	 -0.001500	 -0.139500	  0.985500	    0.010000	    0.290000	   13.500000	    9.531250
   12.2564	  0.041000	 -0.166500	  0.992500	   -0.370000	    0.440000	   13.750000	    9.539063
   12.2664	  0.039000	 -0.165000	  0.983500	   -0.260000	    0.320000	   13.720000	    9.546875
   12.2764	  0.025500	 -0.156500	  1.042500	   -0.130000	    0.400000	   13.670000	    9.539063
   12.2864	  0.049500	 -0.160500	  1.015500	    0.330000	    0.150000	   13.780000	    9.539063
   12.2966	  0.045000	 -0.174000	  1.053000	    0.090000	    0.120000	   13.750000	    9.546875
   12.3064	  0.069500	 -0.152500	  1.023500	    0.560000	   -0.010000	   13.800000	    9.558594
   12.3164	  0.079500	 -0.179500	  1.044500	    0.690000	   -0.010000	   13.500000	    9.539063
   12.3264	  0.099000	 -0.166500	  1.027000	    1.380000	    0.080000	   13.300000	    9.535156
   12.3364	  0.046000	 -0.143000	  0.983500	    0.960000	    0.030000	   13.210000	    9.539063
   12.3464	  0.090500	 -0.153000	  1.036000	    0.760000	   -0.340000	   13.210000	    9.554688
   12.3564	  0.100500	 -0.149000	  0.996500	    0.870000	   -0.400000	   12.900000	    9.546875
   12.3664	  0.107500	 -0.187500	  1.045000	    0.320000	   -0.170000	   12.710000	    9.546875
   12.3766	  0.064000	 -0.165000	  0.997500	    1.050000	   -0.750000	   12.290000	    9.539063
   12.3864	  0.100500	 -0.177000	  1.008500	    1.830000	   -0.980000	   12.110000	    9.562500
   12.3964	  0.061500	 -0.150000	  0.946500	    0.800000	   -0.800000	   12.090000	    9.535156
   12.4064	  0.127500	 -0.139000	  0.998500	   -0.070000	   -0.680000	   11.870000	    9.550781
   12.4164	  0.100500	 -0.153000	  0.993500	    0.910000	   -0.850000	   11.590000	    9.566406
   12.4264	  0.077500	 -0.146500	  0.972000	    0.930000	   -1.050000	   11.410000	    9.562500
   12.4364	  0.131500	 -0.108500	  0.976500	    0.560000	   -0.750000	   11.230000	    9.535156
   12.4464	  0.074500	 -0.125000	  0.954500	    0.250000	   -0.360000	   11.130000	    9.539063
   12.4566	  0.104500	 -0.131500	  1.003500	    0.200000	   -0.100000	   11.090000	    9.550781
   12.4664	  0.076000	 -0.110000	  1.013000	    0.160000	    0.110000	   10.760000	    9.542969
   12.4764	  0.062500	 -0.121500	  0.973500	    0.590000	   -0.080000	   10.840000	    9.546875
