   Time_s    	AccX_g    	AccY_g    	AccZ_g    	GyroX_degs  	GyroY_degs  	GyroZ_degs  	IMU_Temperature
    0.0644	  0.024000	 -0.049000	  0.994000	   -0.320000	   -0.150000	    0.000000	   10.117188
    0.0668	  0.023000	 -0.049000	  0.993500	   -0.200000	   -0.090000	    0.020000	   10.125000
    0.0692	  0.023500	 -0.049500	  0.994000	   -0.320000	   -0.050000	    0.040000	   10.105469
    0.0717	  0.023500	 -0.049000	  0.994000	   -0.220000	   -0.070000	    0.050000	   10.097656
    0.0741	  0.023000	 -0.050000	  0.994500	   -0.300000	    0.090000	    0.010000	   10.097656
    0.0766	  0.022000	 -0.050500	  0.995500	   -0.230000	   -0.040000	    0.090000	   10.089844
    0.0853	  0.022500	 -0.051000	  0.995500	   -0.290000	   -0.080000	   -0.040000	   10.097656
    0.0953	  0.022000	 -0.050500	  0.995000	   -0.340000	    0.000000	   -0.030000	   10.097656
    0.1053	  0.022000	 -0.051000	  0.995500	   -0.340000	   -0.030000	    0.060000	   10.125000
    0.1153	  0.021500	 -0.050000	  0.996000	   -0.210000	   -0.050000	   -0.010000	   10.125000
    0.1253	  0.020500	 -0.050000	  0.996500	   -0.270000	   -0.040000	   -0.020000	   10.117188
    0.1355	  0.021500	 -0.052000	  0.997500	   -0.410000	   -0.070000	   -0.040000	   10.074219
    0.1453	  0.021000	 -0.051000	  0.997500	   -0.350000	   -0.110000	    0.080000	   10.089844
    0.1553	  0.021000	 -0.053000	  0.998000	   -0.330000	    0.050000	   -0.050000	   10.117188
    0.1653	  0.020000	 -0.051000	  0.997000	   -0.280000	   -0.090000	   -0.010000	   10.128906
    0.1753	  0.020500	 -0.051000	  0.996000	   -0.210000	   -0.100000	    0.000000	   10.113281
    0.1853	  0.020000	 -0.051000	  0.999000	   -0.210000	   -0.130000	    0.100000	   10.113281
    0.1953	  0.020500	 -0.049000	  0.995500	   -0.200000	    0.030000	   -0.070000	   10.117188
    0.2053	  0.019500	 -0.050000	  0.997000	   -0.280000	   -0.060000	    0.020000	   10.109375
    0.2155	  0.020000	 -0.049500	  0.996500	   -0.240000	   -0.070000	    0.060000	   10.085938
    0.2253	  0.019500	 -0.048000	  0.995500	   -0.230000	   -0.050000	   -0.040000	   10.097656
    0.2353	  0.020000	 -0.047500	  0.996500	   -0.300000	   -0.110000	   -0.060000	   10.121094
    0.2453	  0.020500	 -0.048000	  0.996000	   -0.160000	   -0.020000	    0.060000	   10.109375
    0.2553	  0.021000	 -0.048000	  0.996000	   -0.170000	   -0.040000	    0.010000	   10.097656
    0.2653	  0.020500	 -0.047000	  0.995000	   -0.230000	   -0.140000	    0.000000	   10.085938
    0.2753	  0.021000	 -0.048000	  0.995000	   -0.260000	   -0.130000	   -0.010000	   10.101563
    0.2853	  0.021500	 -0.047000	  0.995000	   -0.250000	   -0.150000	    0.100000	   10.121094
    0.2955	  0.022000	 -0.048000	  0.995000	   -0.410000	   -0.150000	   -0.050000	   10.093750
    0.3053	  0.021000	 -0.047500	  0.993000	   -0.250000	   -0.180000	   -0.100000	   10.101563
    0.3153	  0.021500	 -0.048000	  0.995000	   -0.290000	   -0.010000	   -0.030000	   10.128906
    0.3253	  0.022000	 -0.048500	  0.994000	   -0.330000	   -0.060000	   -0.070000	   10.109375
    0.3353	  0.022500	 -0.048500	  0.993000	   -0.350000	   -0.110000	    0.020000	   10.132813
    0.3453	  0.023500	 -0.049500	  0.995000	   -0.270000	   -0.120000	    0.000000	   10.125000
    0.3553	  0.023000	 -0.049500	  0.995000	   -0.280000	   -0.160000	    0.050000	   10.097656
    0.3653	  0.023000	 -0.050000	  0.994500	   -0.190000	   -0.010000	    0.000000	   10.085938
    0.3755	  0.022500	 -0.049500	  0.994500	   -0.090000	   -0.060000	   -0.060000	   10.097656
    0.3853	  0.022000	 -0.049000	  0.995500	   -0.350000	   -0.100000	    0.010000	   10.101563
    0.3953	  0.023000	 -0.050500	  0.996500	   -0.460000	   -0.110000	    0.060000	   10.105469
    0.4053	  0.023500	 -0.050000	  0.995000	   -0.220000	   -0.170000	    0.040000	   10.109375
    0.4153	  0.023000	 -0.050500	  0.996500	   -0.270000	   -0.090000	   -0.020000	   10.101563
    0.4253	  0.022500	 -0.051000	  0.995000	   -0.350000	   -0.160000	    0.000000	   10.078125
    0.4353	  0.022000	 -0.050000	  0.995500	   -0.320000	   -0.130000	   -0.030000	   10.089844
    0.4453	  0.023000	 -0.050500	  0.997500	   -0.250000	   -0.010000	    0.020000	   10.105469
    0.4555	  0.022500	 -0.050500	  0.997500	   -0.120000	   -0.060000	    0.000000	   10.105469
    0.4653	  0.023000	 -0.050000	  0.996500	   -0.360000	   -0.140000	    0.030000	   10.117188
    0.4753	  0.022500	 -0.049500	  0.996000	   -0.320000	   -0.080000	    0.030000	   10.093750
    0.4853	  0.023000	 -0.049500	  0.995500	   -0.240000	   -0.090000	    0.010000	   10.093750
    0.4953	  0.023000	 -0.049000	  0.996000	   -0.210000	   -0.020000	   -0.040000	   10.109375
    0.5053	  0.022000	 -0.049500	  0.996500	   -0.310000	   -0.060000	   -0.040000	   10.117188
    0.5153	  0.022000	 -0.048000	  0.996500	   -0.320000	   -0.070000	    0.020000	   10.132813
    0.5253	  0.022000	 -0.050000	  0.995500	   -0.250000	   -0.110000	    0.010000	   10.117188
    0.5355	  0.022000	 -0.050000	  0.994000	   -0.290000	   -0.030000	    0.000000	   10.109375
    0.5453	  0.023000	 -0.048500	  0.995000	   -0.290000	   -0.050000	    0.020000	   10.125000
    0.5553	  0.022500	 -0.047500	  0.994500	   -0.260000	   -0.180000	    0.060000	   10.132813
    0.5653	  0.022000	 -0.049500	  0.994500	   -0.260000	   -0.030000	    0.080000	   10.117188
    0.5753	  0.022000	 -0.049500	  0.994500	   -0.280000	    0.010000	    0.090000	   10.093750
    0.5853	  0.021500	 -0.048000	  0.994500	   -0.390000	   -0.140000	   -0.080000	   10.101563
    0.5957	  0.021000	 -0.048500	  0.994000	   -0.260000	   -0.090000	    0.130000	   10.109375
    0.6053	  0.021000	 -0.049500	  0.995000	   -0.240000	   -0.090000	    0.070000	   10.121094
    0.6155	  0.022000	 -0.047500	  0.994500	   -0.210000	    0.060000	   -0.040000	   10.089844
    0.6253	  0.021500	 -0.049000	  0.995500	   -0.280000	   -0.190000	    0.040000	   10.101563
    0.6353	  0.021500	 -0.048500	  0.996000	   -0.390000	    0.020000	    0.000000	   10.121094
    0.6453	  0.020500	 -0.048500	  0.996000	   -0.190000	   -0.060000	    0.050000	   10.101563
    0.6553	  0.021500	 -0.048500	  0.996500	   -0.400000	    0.000000	    0.020000	   10.101563
    0.6653	  0.020500	 -0.047500	  0.995500	   -0.190000	   -0.060000	    0.080000	   10.113281
    0.6753	  0.021000	 -0.049500	  0.995500	   -0.250000	   -0.150000	    0.020000	   10.117188
    0.6853	  0.021500	 -0.049500	  0.995500	   -0.260000	   -0.110000	    0.030000	   10.125000
    0.6955	  0.021000	 -0.048500	  0.996000	   -0.170000	   -0.110000	    0.000000	   10.109375
    0.7053	  0.020500	 -0.050000	  0.995500	   -0.280000	   -0.050000	    0.060000	   10.101563
    0.7153	  0.021000	 -0.049000	  0.996000	   -0.190000	   -0.080000	   -0.090000	   10.132813
    0.7253	  0.021500	 -0.049000	  0.996500	   -0.310000	    0.010000	    0.000000	   10.113281
    0.7353	  0.021500	 -0.049500	  0.994500	   -0.300000	   -0.060000	    0.050000	   10.093750
    0.7453	  0.021000	 -0.050500	  0.995000	   -0.260000	   -0.200000	    0.060000	   10.121094
    0.7553	  0.022000	 -0.050000	  0.997000	   -0.260000	   -0.040000	   -0.040000	   10.128906
    0.7653	  0.022000	 -0.049000	  0.997000	   -0.230000	   -0.070000	   -0.030000	   10.136719
    0.7755	  0.022000	 -0.049500	  0.995000	   -0.130000	   -0.050000	    0.110000	   10.117188
    0.7853	  0.022000	 -0.050000	  0.997000	   -0.290000	   -0.040000	   -0.020000	   10.132813
    0.7953	  0.021500	 -0.050000	  0.996000	   -0.280000	   -0.080000	    0.050000	   10.140625
    0.8053	  0.022500	 -0.050500	  0.995000	   -0.210000	   -0.090000	   -0.010000	   10.128906
    0.8153	  0.022500	 -0.051000	  0.996500	   -0.420000	   -0.160000	    0.070000	   10.109375
    0.8253	  0.023000	 -0.050000	  0.994500	   -0.250000	   -0.110000	   -0.020000	   10.109375
    0.8354	  0.022500	 -0.049500	  0.995500	   -0.160000	   -0.180000	    0.040000	   10.117188
    0.8453	  0.022500	 -0.050000	  0.995000	   -0.250000	   -0.050000	    0.040000	   10.105469
    0.8555	  0.022500	 -0.049500	  0.995000	   -0.330000	   -0.080000	    0.060000	   10.105469
    0.8653	  0.023500	 -0.048000	  0.995000	   -0.360000	    0.010000	   -0.090000	   10.105469
    0.8753	  0.023000	 -0.048500	  0.994000	   -0.160000	    0.000000	   -0.060000	   10.101563
    0.8853	  0.023500	 -0.048000	  0.993500	   -0.240000	   -0.070000	   -0.070000	   10.113281
    0.8953	  0.022500	 -0.047500	  0.994000	   -0.310000	   -0.050000	   -0.020000	   10.128906
    0.9053	  0.023000	 -0.047500	  0.994500	   -0.240000	   -0.160000	    0.070000	   10.117188
    0.9153	  0.022000	 -0.048500	  0.994000	   -0.280000	    0.030000	    0.070000	   10.089844
    0.9253	  0.023000	 -0.048000	  0.995500	   -0.270000	   -0.170000	    0.080000	   10.105469
    0.9355	  0.022000	 -0.047500	  0.996500	   -0.170000	   -0.100000	   -0.090000	   10.125000
    0.9453	  0.022500	 -0.048000	  0.996000	   -0.310000	   -0.090000	    0.010000	   10.132813
    0.9553	  0.022000	 -0.048500	  0.995500	   -0.310000	    0.000000	   -0.060000	   10.117188
    0.9653	  0.023000	 -0.048000	  0.996500	   -0.240000	   -0.020000	    0.020000	   10.136719
    0.9753	  0.022000	 -0.048500	  0.997500	   -0.340000	   -0.060000	    0.030000	   10.128906
    0.9853	  0.021500	 -0.049500	  0.995500	   -0.340000	    0.060000	    0.030000	   10.117188
    0.9953	  0.021500	 -0.049000	  0.996500	   -0.280000	   -0.090000	    0.040000	   10.121094
    1.0053	  0.021000	 -0.048000	  0.996500	   -0.220000	   -0.160000	    0.020000	   10.109375
    1.0155	  0.021500	 -0.050000	  0.996000	   -0.210000	   -0.050000	    0.000000	   10.097656
    1.0253	  0.021000	 -0.050000	  0.996000	   -0.300000	   -0.090000	    0.030000	   10.093750
    1.0353	  0.021500	 -0.049500	  0.996000	   -0.350000	   -0.070000	   -0.030000	   10.113281
    1.0453	  0.022000	 -0.050500	  0.996500	   -0.260000	   -0.080000	   -0.070000	   10.117188
    1.0553	  0.020500	 -0.049500	  0.995500	   -0.240000	   -0.100000	    0.010000	   10.109375
    1.0653	  0.021500	 -0.049000	  0.995500	   -0.290000	   -0.100000	    0.050000	   10.093750
    1.0753	  0.021000	 -0.050000	  0.996000	   -0.230000	   -0.070000	    0.100000	   10.097656
    1.0853	  0.021500	 -0.050500	  0.994500	   -0.360000	   -0.060000	   -0.020000	   10.117188
    1.0955	  0.022000	 -0.050000	  0.994000	   -0.260000	    0.010000	    0.050000	   10.125000
    1.1053	  0.022000	 -0.049500	  0.994500	   -0.320000	   -0.170000	    0.080000	   10.113281
    1.1153	  0.021500	 -0.050500	  0.995500	   -0.310000	   -0.160000	   -0.070000	   10.105469
    1.1253	  0.021000	 -0.049500	  0.995000	   -0.280000	   -0.050000	    0.080000	   10.117188
    1.1353	  0.021500	 -0.050000	  0.995000	   -0.190000	    0.010000	    0.080000	   10.101563
    1.1453	  0.021500	 -0.050000	  0.993500	   -0.270000	    0.060000	    0.040000	   10.089844
    1.1553	  0.021000	 -0.048000	  0.993500	   -0.290000	   -0.150000	    0.040000	   10.101563
    1.1653	  0.022000	 -0.049500	  0.995500	   -0.290000	   -0.060000	    0.010000	   10.128906
    1.1755	  0.022500	 -0.048500	  0.996500	   -0.320000	   -0.160000	    0.090000	   10.132813
    1.1853	  0.022000	 -0.050000	  0.995000	   -0.290000	    0.010000	   -0.110000	   10.097656
    1.1953	  0.022500	 -0.049500	  0.996500	   -0.310000	   -0.090000	   -0.070000	   10.097656
    1.2053	  0.022500	 -0.049000	  0.996000	   -0.140000	   -0.010000	   -0.100000	   10.101563
    1.2153	  0.022000	 -0.049000	  0.997500	   -0.240000	   -0.150000	    0.030000	   10.089844
    1.2253	  0.022000	 -0.049000	  0.996000	   -0.300000	   -0.120000	    0.120000	   10.089844
    1.2353	  0.023000	 -0.049500	  0.997500	   -0.360000	   -0.070000	    0.040000	   10.097656
    1.2453	  0.021500	 -0.049500	  0.997500	   -0.290000	   -0.070000	   -0.020000	   10.117188
    1.2555	  0.022000	 -0.048500	  0.994500	   -0.270000	   -0.050000	   -0.050000	   10.136719
    1.2653	  0.022500	 -0.049500	  0.996500	   -0.300000	   -0.100000	   -0.050000	   10.125000
    1.2753	  0.022500	 -0.049500	  0.995500	   -0.150000	   -0.050000	    0.050000	   10.121094
    1.2853	  0.023000	 -0.049000	  0.996000	   -0.410000	   -0.130000	   -0.040000	   10.078125
    1.2953	  0.022500	 -0.048500	  0.995000	   -0.290000	   -0.060000	   -0.030000	   10.093750
    1.3053	  0.022000	 -0.048500	  0.996000	   -0.320000	   -0.100000	    0.000000	   10.117188
    1.3153	  0.023000	 -0.048500	  0.995000	   -0.360000	   -0.120000	    0.010000	   10.105469
    1.3253	  0.021500	 -0.048000	  0.996000	   -0.260000	   -0.060000	    0.010000	   10.105469
    1.3355	  0.021500	 -0.049000	  0.993500	   -0.260000	   -0.100000	    0.040000	   10.132813
    1.3454	  0.022500	 -0.048000	  0.995000	   -0.260000	    0.000000	   -0.010000	   10.132813
    1.3553	  0.021500	 -0.049000	  0.994500	   -0.260000	   -0.060000	    0.050000	   10.144531
    1.3653	  0.021500	 -0.049000	  0.995000	   -0.390000	   -0.170000	    0.010000	   10.144531
    1.3753	  0.022000	 -0.049000	  0.994500	   -0.290000	    0.020000	   -0.040000	   10.136719
    1.3853	  0.021500	 -0.049500	  0.994500	   -0.220000	   -0.130000	    0.000000	   10.136719
    1.3953	  0.022000	 -0.050000	  0.995000	   -0.170000	   -0.120000	    0.020000	   10.105469
    1.4053	  0.021500	 -0.049500	  0.995000	   -0.200000	   -0.090000	    0.030000	   10.105469
    1.4155	  0.022000	 -0.049500	  0.994500	   -0.310000	   -0.110000	    0.030000	   10.109375
    1.4253	  0.021500	 -0.049500	  0.996500	   -0.360000	   -0.070000	    0.010000	   10.121094
    1.4353	  0.021500	 -0.050500	  0.996000	   -0.360000	   -0.030000	   -0.100000	   10.093750
    1.4454	  0.021000	 -0.048500	  0.995000	   -0.270000	   -0.070000	   -0.060000	   10.117188
    1.4553	  0.022500	 -0.051000	  0.996000	   -0.180000	    0.010000	   -0.020000	   10.121094
    1.4653	  0.021000	 -0.050000	  0.996000	   -0.330000	   -0.180000	   -0.030000	   10.121094
    1.4753	  0.021500	 -0.050000	  0.995500	   -0.270000	   -0.060000	   -0.030000	   10.105469
    1.4853	  0.021000	 -0.049000	  0.995500	   -0.270000	   -0.100000	   -0.070000	   10.121094
    1.4955	  0.021000	 -0.049500	  0.995000	   -0.300000	   -0.100000	    0.030000	   10.121094
    1.5053	  0.021500	 -0.049500	  0.996500	   -0.340000	   -0.150000	    0.020000	   10.117188
    1.5153	  0.022000	 -0.050000	  0.995500	   -0.360000	   -0.150000	   -0.010000	   10.117188
    1.5253	  0.020500	 -0.049000	  0.996000	   -0.260000	   -0.040000	   -0.050000	   10.105469
    1.5353	  0.021500	 -0.049500	  0.996000	   -0.240000	   -0.060000	   -0.020000	   10.109375
    1.5453	  0.021500	 -0.049000	  0.994500	   -0.330000	   -0.090000	    0.050000	   10.105469
    1.5553	  0.020500	 -0.049500	  0.995000	   -0.290000	   -0.070000	    0.120000	   10.109375
    1.5653	  0.021500	 -0.049500	  0.996500	   -0.290000	   -0.180000	    0.010000	   10.125000
    1.5755	  0.021500	 -0.050000	  0.995500	   -0.270000	   -0.040000	   -0.050000	   10.132813
    1.5853	  0.021500	 -0.049500	  0.996000	   -0.120000	   -0.100000	   -0.030000	   10.101563
    1.5957	  0.022000	 -0.049000	  0.995500	   -0.250000	   -0.090000	    0.060000	   10.082031
    1.6053	  0.021500	 -0.048500	  0.995500	   -0.200000	   -0.070000	   -0.030000	   10.089844
    1.6153	  0.021000	 -0.048500	  0.996500	   -0.340000	    0.000000	   -0.100000	   10.105469
    1.6253	  0.021500	 -0.049500	  0.996000	   -0.230000	   -0.140000	    0.020000	   10.101563
    1.6353	  0.021500	 -0.049000	  0.994500	   -0.430000	   -0.200000	    0.100000	   10.097656
    1.6453	  0.021500	 -0.049000	  0.995000	   -0.310000	   -0.140000	    0.010000	   10.093750
    1.6556	  0.021500	 -0.047000	  0.994500	   -0.180000	   -0.090000	   -0.020000	   10.109375
    1.6653	  0.022000	 -0.050000	  0.995000	   -0.210000	   -0.210000	    0.050000	   10.121094
    1.6754	  0.022000	 -0.050000	  0.996000	   -0.250000	   -0.020000	    0.090000	   10.105469
    1.6853	  0.021500	 -0.048500	  0.996500	   -0.280000	    0.020000	    0.040000	   10.093750
    1.6953	  0.021500	 -0.049000	  0.996000	   -0.300000	   -0.030000	    0.080000	   10.093750
    1.7053	  0.022500	 -0.049000	  0.996000	   -0.440000	   -0.070000	    0.080000	   10.113281
    1.7153	  0.022500	 -0.049000	  0.994500	   -0.300000	   -0.060000	   -0.010000	   10.128906
    1.7253	  0.022500	 -0.049000	  0.995500	   -0.220000	   -0.050000	   -0.160000	   10.152344
    1.7355	  0.022000	 -0.050000	  0.994500	   -0.190000	   -0.010000	    0.020000	   10.140625
    1.7454	  0.021500	 -0.048500	  0.996000	   -0.330000	   -0.060000	    0.070000	   10.117188
    1.7553	  0.022000	 -0.050000	  0.996500	   -0.290000	   -0.150000	    0.110000	   10.136719
    1.7653	  0.022000	 -0.049500	  0.997000	   -0.360000	   -0.120000	   -0.040000	   10.132813
    1.7753	  0.022000	 -0.049000	  0.995000	   -0.270000	   -0.140000	    0.160000	   10.113281
    1.7853	  0.022000	 -0.049500	  0.995500	   -0.320000	   -0.110000	    0.010000	   10.113281
    1.7953	  0.022500	 -0.049000	  0.994500	   -0.320000	   -0.090000	   -0.030000	   10.132813
    1.8053	  0.022500	 -0.050000	  0.995500	   -0.290000	   -0.010000	    0.130000	   10.121094
    1.8155	  0.021500	 -0.049000	  0.996000	   -0.310000	   -0.060000	   -0.030000	   10.105469
    1.8253	  0.022000	 -0.050000	  0.997000	   -0.330000	   -0.170000	   -0.030000	   10.078125
    1.8353	  0.020500	 -0.049000	  0.997000	   -0.340000	   -0.060000	   -0.040000	   10.101563
    1.8454	  0.022000	 -0.050500	  0.997000	   -0.310000	   -0.080000	   -0.010000	   10.128906
    1.8553	  0.021000	 -0.049000	  0.997000	   -0.320000	   -0.150000	   -0.010000	   10.132813
    1.8653	  0.022000	 -0.048500	  0.997000	   -0.270000	   -0.110000	    0.110000	   10.105469
    1.8753	  0.022000	 -0.049000	  0.997000	   -0.200000	    0.030000	   -0.050000	   10.109375
    1.8853	  0.022000	 -0.049000	  0.998000	   -0.200000	    0.000000	   -0.040000	   10.109375
    1.8955	  0.023000	 -0.049500	  0.996500	   -0.230000	   -0.180000	    0.060000	   10.093750
    1.9053	  0.022500	 -0.050000	  0.996000	   -0.300000	   -0.010000	   -0.020000	   10.117188
    1.9153	  0.023500	 -0.050000	  0.996500	   -0.260000	    0.040000	   -0.030000	   10.117188
    1.9253	  0.022000	 -0.048000	  0.997500	   -0.240000	   -0.010000	   -0.010000	   10.109375
    1.9353	  0.023000	 -0.049000	  0.996500	   -0.220000	   -0.040000	    0.030000	   10.117188
    1.9454	  0.022000	 -0.049500	  0.996500	   -0.310000	    0.000000	    0.010000	   10.101563
    1.9553	  0.022500	 -0.050500	  0.995000	   -0.140000	   -0.110000	   -0.080000	   10.101563
    1.9653	  0.022500	 -0.049000	  0.994000	   -0.370000	   -0.170000	   -0.040000	   10.101563
    1.9755	  0.022000	 -0.048500	  0.993500	   -0.260000	   -0.190000	    0.010000	   10.113281
    1.9853	  0.022000	 -0.047500	  0.993000	   -0.180000	   -0.080000	    0.050000	   10.113281
    1.9953	  0.022000	 -0.046500	  0.992000	   -0.320000	   -0.140000	    0.020000	   10.121094
    2.0053	  0.022000	 -0.047500	  0.992000	   -0.240000	    0.000000	    0.030000	   10.089844
    2.0153	  0.021000	 -0.046500	  0.992500	   -0.350000	   -0.060000	    0.030000	   10.109375
    2.0253	  0.019500	 -0.047500	  0.993500	   -0.360000	   -0.190000	   -0.100000	   10.113281
    2.0353	  0.021000	 -0.048500	  0.993500	   -0.300000	   -0.110000	   -0.030000	   10.117188
    2.0453	  0.020500	 -0.047000	  0.993000	   -0.330000	   -0.050000	   -0.020000	   10.113281
    2.0556	  0.021500	 -0.047500	  0.996000	   -0.300000	   -0.070000	    0.030000	   10.105469
    2.0653	  0.020000	 -0.049500	  0.997000	   -0.290000	   -0.100000	   -0.110000	   10.097656
    2.0753	  0.020000	 -0.049000	  0.998000	   -0.310000	    0.050000	    0.050000	   10.082031
    2.0853	  0.020500	 -0.049500	  0.998000	   -0.380000	   -0.110000	   -0.030000	   10.085938
    2.0953	  0.021000	 -0.050000	  0.998500	   -0.280000	    0.010000	    0.020000	   10.125000
    2.1053	  0.021500	 -0.050000	  0.999000	   -0.410000	   -0.070000	   -0.010000	   10.140625
    2.1153	  0.022500	 -0.051000	  0.998000	   -0.400000	   -0.140000	    0.030000	   10.125000
    2.1253	  0.022000	 -0.050500	  0.998500	   -0.300000	   -0.160000	    0.030000	   10.093750
    2.1356	  0.023000	 -0.052000	  0.999500	   -0.360000	   -0.130000	    0.000000	   10.117188
    2.1454	  0.022000	 -0.052000	  0.998000	   -0.170000	   -0.100000	   -0.030000	   10.136719
    2.1553	  0.022500	 -0.050500	  0.999000	   -0.230000	   -0.270000	    0.040000	   10.132813
    2.1653	  0.021500	 -0.051500	  0.995500	   -0.230000	   -0.150000	   -0.010000	   10.113281
    2.1753	  0.022500	 -0.050500	  0.998000	   -0.220000	   -0.030000	   -0.130000	   10.113281
    2.1853	  0.022000	 -0.050000	  0.996000	   -0.270000	   -0.230000	   -0.070000	   10.117188
    2.1953	  0.022000	 -0.050000	  0.994500	   -0.190000	   -0.170000	    0.020000	   10.117188
    2.2053	  0.022000	 -0.050500	  0.994500	   -0.220000	   -0.210000	    0.060000	   10.113281
    2.2155	  0.021500	 -0.049500	  0.996000	   -0.290000	   -0.090000	   -0.090000	   10.132813
    2.2253	  0.022000	 -0.050000	  0.994500	   -0.260000	   -0.040000	    0.060000	   10.121094
    2.2353	  0.021500	 -0.048000	  0.993500	   -0.180000	   -0.070000	   -0.030000	   10.109375
    2.2454	  0.021500	 -0.049500	  0.993500	   -0.280000	   -0.160000	   -0.010000	   10.125000
    2.2553	  0.021000	 -0.051000	  0.994500	   -0.290000	   -0.180000	    0.050000	   10.121094
    2.2653	  0.021000	 -0.050500	  0.993000	   -0.290000	   -0.160000	    0.030000	   10.128906
    2.2753	  0.022000	 -0.050000	  0.994000	   -0.270000	   -0.130000	   -0.060000	   10.125000
    2.2853	  0.020500	 -0.048500	  0.995000	   -0.290000	   -0.070000	    0.000000	   10.128906
    2.2955	  0.022500	 -0.048000	  0.994500	   -0.240000	   -0.090000	    0.070000	   10.117188
    2.3053	  0.021000	 -0.048500	  0.995000	   -0.220000	   -0.140000	    0.040000	   10.105469
    2.3153	  0.022500	 -0.045500	  0.996000	   -0.150000	   -0.060000	    0.020000	   10.101563
    2.3253	  0.021500	 -0.048500	  0.995500	   -0.260000	    0.000000	   -0.100000	   10.109375
    2.3353	  0.022000	 -0.046000	  0.996000	   -0.310000	   -0.120000	    0.050000	   10.105469
    2.3454	  0.022000	 -0.047000	  0.995000	   -0.130000	   -0.120000	    0.060000	   10.121094
    2.3554	  0.022000	 -0.047500	  0.996000	   -0.430000	   -0.090000	    0.080000	   10.117188
    2.3653	  0.024000	 -0.047000	  0.996500	   -0.280000	   -0.120000	   -0.020000	   10.128906
    2.3756	  0.022500	 -0.049000	  0.997000	   -0.260000	   -0.080000	    0.100000	   10.093750
    2.3854	  0.023000	 -0.050500	  0.997500	   -0.350000	   -0.020000	    0.000000	   10.105469
    2.3954	  0.022500	 -0.051000	  0.996500	   -0.320000	   -0.090000	    0.000000	   10.117188
    2.4054	  0.023500	 -0.049500	  0.996000	   -0.240000	   -0.190000	    0.010000	   10.132813
    2.4154	  0.022500	 -0.052000	  0.996500	   -0.340000	   -0.110000	    0.060000	   10.132813
    2.4253	  0.021500	 -0.051000	  0.996000	   -0.230000	   -0.090000	   -0.100000	   10.113281
    2.4354	  0.023000	 -0.051500	  0.998500	   -0.370000	   -0.080000	   -0.030000	   10.097656
    2.4454	  0.021500	 -0.049500	  0.996500	   -0.220000	   -0.120000	   -0.060000	   10.117188
    2.4556	  0.021500	 -0.050000	  0.998000	   -0.300000	   -0.040000	   -0.050000	   10.109375
    2.4654	  0.022000	 -0.051000	  0.996500	   -0.380000	   -0.010000	    0.000000	   10.113281
    2.4753	  0.022000	 -0.050000	  0.999000	   -0.320000	    0.040000	   -0.090000	   10.101563
    2.4854	  0.022000	 -0.051000	  0.996000	   -0.220000	   -0.140000	    0.030000	   10.109375
    2.4954	  0.021000	 -0.049500	  0.997500	   -0.280000	   -0.070000	    0.000000	   10.093750
    2.5054	  0.020500	 -0.050500	  0.996500	   -0.320000	    0.040000	    0.020000	   10.113281
    2.5154	  0.020000	 -0.049500	  0.996500	   -0.190000	    0.040000	   -0.010000	   10.117188
    2.5254	  0.021000	 -0.050500	  0.995500	   -0.290000	   -0.160000	    0.020000	   10.097656
    2.5356	  0.021500	 -0.050000	  0.996000	   -0.200000	   -0.140000	   -0.030000	   10.109375
    2.5454	  0.021500	 -0.049000	  0.993500	   -0.270000	   -0.080000	    0.020000	   10.121094
    2.5554	  0.021500	 -0.049500	  0.993000	   -0.200000	   -0.080000	    0.000000	   10.136719
    2.5654	  0.022000	 -0.049500	  0.994000	   -0.220000	   -0.180000	    0.130000	   10.125000
    2.5754	  0.021000	 -0.050000	  0.993000	   -0.320000	   -0.040000	   -0.050000	   10.117188
    2.5854	  0.020500	 -0.048500	  0.992000	   -0.160000	   -0.070000	   -0.050000	   10.101563
    2.5957	  0.021500	 -0.049000	  0.991000	   -0.160000	   -0.020000	   -0.010000	   10.117188
    2.6054	  0.022000	 -0.049000	  0.992500	   -0.330000	   -0.110000	    0.030000	   10.101563
    2.6156	  0.021000	 -0.049000	  0.993500	   -0.220000	   -0.110000	    0.000000	   10.132813
    2.6254	  0.022000	 -0.049000	  0.994000	   -0.230000	    0.000000	    0.020000	   10.125000
    2.6354	  0.022000	 -0.048500	  0.996000	   -0.230000	   -0.100000	   -0.040000	   10.109375
    2.6454	  0.021500	 -0.048000	  0.995000	   -0.310000	   -0.210000	    0.050000	   10.117188
    2.6555	  0.022000	 -0.049000	  0.996500	   -0.340000	   -0.190000	    0.130000	   10.109375
    2.6654	  0.022000	 -0.048500	  0.997500	   -0.390000	    0.010000	   -0.040000	   10.113281
    2.6754	  0.022000	 -0.048500	  0.997000	   -0.410000	   -0.010000	   -0.010000	   10.113281
    2.6854	  0.023500	 -0.048000	  0.996000	   -0.380000	   -0.110000	   -0.040000	   10.121094
    2.6956	  0.022000	 -0.048500	  0.997000	   -0.300000	   -0.230000	   -0.010000	   10.125000
    2.7054	  0.022000	 -0.047500	  0.997000	   -0.320000	   -0.150000	    0.020000	   10.101563
    2.7154	  0.022000	 -0.049500	  0.996000	   -0.280000	   -0.090000	   -0.060000	   10.121094
    2.7254	  0.021500	 -0.048500	  0.996500	   -0.280000	   -0.170000	   -0.070000	   10.125000
    2.7354	  0.022500	 -0.048000	  0.996500	   -0.200000	   -0.060000	   -0.080000	   10.113281
    2.7454	  0.022000	 -0.050000	  0.996000	   -0.300000	   -0.040000	   -0.030000	   10.121094
    2.7554	  0.022000	 -0.050000	  0.995000	   -0.380000	   -0.130000	    0.100000	   10.117188
    2.7654	  0.023000	 -0.049000	  0.994000	   -0.190000	   -0.170000	   -0.050000	   10.105469
    2.7756	  0.023000	 -0.050000	  0.995000	   -0.250000	   -0.160000	   -0.030000	   10.109375
    2.7854	  0.023000	 -0.052000	  0.994000	   -0.270000	   -0.010000	   -0.030000	   10.128906
    2.7954	  0.022000	 -0.051500	  0.994000	   -0.280000	   -0.030000	    0.030000	   10.132813
    2.8054	  0.022500	 -0.052000	  0.994500	   -0.280000	   -0.040000	    0.010000	   10.121094
    2.8154	  0.023000	 -0.050500	  0.995500	   -0.140000	   -0.100000	    0.070000	   10.109375
    2.8254	  0.023000	 -0.052500	  0.994500	   -0.240000	   -0.040000	    0.010000	   10.089844
    2.8354	  0.023000	 -0.053500	  0.995500	   -0.240000	   -0.130000	    0.040000	   10.121094
    2.8454	  0.022500	 -0.052000	  0.995500	   -0.370000	   -0.070000	   -0.010000	   10.121094
    2.8556	  0.023000	 -0.053000	  0.994500	   -0.340000	   -0.020000	    0.030000	   10.117188
    2.8654	  0.025000	 -0.061000	  0.990500	   -0.330000	   -0.040000	    0.040000	   10.097656
    2.8754	  0.025000	 -0.068000	  0.983000	   -0.390000	   -0.170000	   -0.020000	   10.117188
    2.8854	  0.023000	 -0.071000	  0.980500	   -0.430000	   -0.040000	   -0.090000	   10.140625
    2.8954	  0.020000	 -0.072500	  0.983500	   -0.570000	   -0.020000	   -0.050000	   10.132813
    2.9054	  0.021500	 -0.072000	  0.987500	   -0.450000	    0.010000	   -0.010000	   10.117188
    2.9154	  0.022000	 -0.073000	  0.981000	   -0.570000	   -0.080000	   -0.020000	   10.109375
    2.9254	  0.020500	 -0.079500	  0.977000	   -0.520000	   -0.130000	   -0.010000	   10.105469
    2.9356	  0.021500	 -0.081000	  0.973500	   -0.650000	   -0.110000	   -0.020000	   10.132813
    2.9454	  0.021500	 -0.083000	  0.976000	   -0.700000	   -0.020000	   -0.030000	   10.132813
    2.9554	  0.017000	 -0.085000	  0.979000	   -0.770000	    0.040000	    0.000000	   10.144531
    2.9654	  0.021000	 -0.089000	  0.976000	   -0.740000	    0.050000	    0.040000	   10.125000
    2.9754	  0.019500	 -0.094500	  0.975000	   -0.710000	    0.070000	   -0.050000	   10.121094
    2.9854	  0.017500	 -0.098500	  0.976500	   -0.780000	    0.000000	   -0.020000	   10.128906
    2.9954	  0.019000	 -0.099000	  0.977500	   -0.780000	    0.020000	    0.020000	   10.128906
    3.0054	  0.019500	 -0.104500	  0.980000	   -0.890000	   -0.080000	    0.090000	   10.132813
    3.0156	  0.019000	 -0.103000	  0.983500	   -0.960000	   -0.050000	    0.030000	   10.113281
    3.0254	  0.019000	 -0.102500	  0.990000	   -0.960000	    0.020000	    0.020000	   10.113281
    3.0354	  0.020000	 -0.101000	  0.992000	   -0.810000	   -0.030000	    0.090000	   10.144531
    3.0454	  0.019000	 -0.102000	  0.996500	   -0.780000	    0.010000	    0.010000	   10.113281
    3.0554	  0.018500	 -0.103500	  0.995000	   -0.780000	   -0.030000	   -0.030000	   10.089844
    3.0654	  0.019500	 -0.104000	  0.999000	   -0.780000	   -0.060000	    0.190000	   10.121094
    3.0754	  0.020000	 -0.105000	  0.998500	   -0.760000	   -0.110000	    0.150000	   10.117188
    3.0854	  0.019000	 -0.104500	  1.001500	   -0.520000	    0.000000	    0.060000	   10.113281
    3.0956	  0.020500	 -0.103000	  1.001500	   -0.590000	   -0.040000	    0.130000	   10.117188
    3.1054	  0.020000	 -0.102000	  1.005500	   -0.520000	   -0.070000	   -0.050000	   10.082031
    3.1154	  0.021000	 -0.102500	  1.006500	   -0.630000	   -0.110000	    0.030000	   10.105469
    3.1254	  0.020000	 -0.104000	  1.006000	   -0.520000	   -0.120000	    0.040000	   10.125000
    3.1354	  0.020500	 -0.105500	  1.007500	   -0.340000	   -0.220000	    0.070000	   10.101563
    3.1454	  0.020500	 -0.105500	  1.009000	   -0.520000	   -0.150000	    0.040000	   10.125000
    3.1554	  0.019000	 -0.105000	  1.008000	   -0.410000	   -0.170000	    0.080000	   10.121094
    3.1654	  0.019000	 -0.105000	  1.008000	   -0.310000	   -0.130000	    0.040000	   10.105469
    3.1756	  0.019000	 -0.104000	  1.010000	   -0.440000	   -0.120000	    0.080000	   10.113281
    3.1854	  0.019000	 -0.105500	  1.010000	   -0.420000	   -0.190000	   -0.010000	   10.117188
    3.1954	  0.018500	 -0.108000	  1.009000	   -0.500000	   -0.150000	    0.060000	   10.117188
    3.2054	  0.018000	 -0.107000	  1.007500	   -0.370000	   -0.270000	    0.030000	   10.117188
    3.2154	  0.018500	 -0.106500	  1.010000	   -0.390000	   -0.190000	   -0.010000	   10.117188
    3.2254	  0.018000	 -0.106000	  1.009500	   -0.380000	   -0.330000	    0.000000	   10.128906
    3.2354	  0.017000	 -0.108500	  1.010500	   -0.460000	   -0.380000	    0.090000	   10.132813
    3.2454	  0.016000	 -0.109500	  1.007000	   -0.390000	   -0.430000	   -0.020000	   10.109375
    3.2556	  0.015000	 -0.109500	  1.005500	   -0.290000	   -0.500000	    0.090000	   10.128906
    3.2654	  0.017500	 -0.108500	  1.005000	   -0.360000	   -0.500000	   -0.010000	   10.117188
    3.2754	  0.015500	 -0.111500	  1.003500	   -0.300000	   -0.580000	    0.120000	   10.109375
    3.2854	  0.015500	 -0.112500	  1.000500	   -0.110000	   -0.490000	   -0.020000	   10.113281
    3.2954	  0.015500	 -0.112000	  0.998500	   -0.170000	   -0.580000	    0.000000	   10.132813
    3.3054	  0.014500	 -0.114500	  0.998500	   -0.140000	   -0.640000	    0.100000	   10.136719
    3.3154	  0.018500	 -0.115000	  0.995000	   -0.070000	   -0.690000	   -0.010000	   10.121094
    3.3254	  0.018000	 -0.114500	  0.988000	   -0.140000	   -0.690000	    0.000000	   10.156250
    3.3356	  0.019000	 -0.117000	  0.984500	   -0.200000	   -0.590000	    0.100000	   10.140625
    3.3454	  0.018500	 -0.120000	  0.987000	   -0.230000	   -0.450000	    0.020000	   10.125000
    3.3554	  0.019500	 -0.122500	  0.981500	    0.050000	   -0.450000	   -0.010000	   10.125000
    3.3654	  0.021000	 -0.121500	  0.977000	   -0.090000	   -0.380000	    0.070000	   10.132813
    3.3754	  0.022000	 -0.124000	  0.976500	   -0.080000	   -0.190000	   -0.010000	   10.144531
    3.3854	  0.022000	 -0.126000	  0.977000	   -0.260000	   -0.210000	    0.060000	   10.132813
    3.3954	  0.021500	 -0.126500	  0.976500	   -0.290000	   -0.340000	    0.070000	   10.117188
    3.4054	  0.025000	 -0.129000	  0.976500	   -0.270000	   -0.230000	    0.040000	   10.105469
    3.4156	  0.025500	 -0.130000	  0.972500	   -0.270000	   -0.340000	    0.110000	   10.113281
    3.4254	  0.026000	 -0.133000	  0.977500	   -0.310000	   -0.320000	    0.010000	   10.113281
    3.4354	  0.026500	 -0.135500	  0.981500	   -0.450000	   -0.220000	   -0.020000	   10.132813
    3.4454	  0.028000	 -0.136000	  0.984000	   -0.420000	   -0.320000	    0.000000	   10.117188
    3.4554	  0.029000	 -0.137500	  0.984000	   -0.360000	   -0.320000	    0.190000	   10.117188
    3.4654	  0.029500	 -0.140000	  0.988000	   -0.410000	   -0.270000	    0.050000	   10.113281
    3.4754	  0.031500	 -0.142000	  0.991000	   -0.330000	   -0.310000	    0.050000	   10.117188
    3.4854	  0.032500	 -0.141000	  0.992500	   -0.390000	   -0.290000	    0.060000	   10.109375
    3.4956	  0.034500	 -0.141000	  0.992500	   -0.370000	   -0.270000	   -0.050000	   10.097656
    3.5054	  0.035000	 -0.140000	  0.996500	   -0.380000	   -0.310000	    0.020000	   10.109375
    3.5154	  0.036500	 -0.138500	  0.990000	   -0.310000	   -0.320000	    0.160000	   10.105469
    3.5254	  0.035500	 -0.139000	  0.988500	   -0.300000	   -0.230000	   -0.030000	   10.109375
    3.5354	  0.036000	 -0.136500	  0.986500	   -0.310000	   -0.140000	    0.040000	   10.132813
    3.5454	  0.035500	 -0.131500	  0.989500	   -0.420000	   -0.080000	    0.010000	   10.125000
    3.5554	  0.036500	 -0.129500	  0.990500	   -0.510000	    0.010000	   -0.070000	   10.125000
    3.5654	  0.037000	 -0.130500	  0.991000	   -0.420000	    0.030000	   -0.070000	   10.121094
    3.5756	  0.032500	 -0.130500	  0.996500	   -0.560000	    0.120000	   -0.080000	   10.105469
    3.5854	  0.030000	 -0.128500	  0.997500	   -0.530000	    0.120000	   -0.030000	   10.128906
    3.5958	  0.030500	 -0.123500	  0.998000	   -0.520000	    0.200000	   -0.060000	   10.140625
    3.6054	  0.030000	 -0.124500	  1.002500	   -0.620000	    0.240000	   -0.010000	   10.109375
    3.6154	  0.029500	 -0.126000	  1.007000	   -0.630000	    0.250000	   -0.110000	   10.101563
    3.6254	  0.024500	 -0.125000	  1.009000	   -0.600000	    0.070000	   -0.180000	   10.109375
    3.6354	  0.025000	 -0.124000	  1.005500	   -0.640000	    0.080000	   -0.110000	   10.097656
    3.6454	  0.026000	 -0.123000	  1.007000	   -0.570000	    0.200000	   -0.220000	   10.113281
    3.6556	  0.022500	 -0.122500	  1.007500	   -0.470000	    0.060000	   -0.190000	   10.113281
    3.6654	  0.018500	 -0.122000	  1.004500	   -0.340000	   -0.020000	   -0.320000	   10.093750
    3.6754	  0.019500	 -0.119500	  0.996500	   -0.310000	    0.050000	   -0.210000	   10.085938
    3.6854	  0.015500	 -0.118000	  0.995500	   -0.290000	    0.160000	   -0.250000	   10.117188
    3.6954	  0.010500	 -0.119000	  0.997500	   -0.370000	    0.130000	   -0.180000	   10.121094
    3.7054	  0.014500	 -0.118500	  0.994500	   -0.270000	    0.110000	   -0.250000	   10.117188
    3.7154	  0.012000	 -0.118000	  0.990000	   -0.320000	    0.190000	   -0.360000	   10.128906
    3.7254	  0.008000	 -0.117000	  0.991000	   -0.400000	    0.280000	   -0.190000	   10.128906
    3.7356	  0.005000	 -0.116000	  0.995500	   -0.350000	    0.200000	   -0.190000	   10.121094
    3.7454	  0.006500	 -0.117500	  0.996000	   -0.300000	    0.120000	   -0.130000	   10.117188
    3.7554	  0.003500	 -0.114500	  0.996500	   -0.430000	    0.040000	   -0.120000	   10.105469
    3.7654	  0.000500	 -0.117500	  0.995000	   -0.360000	    0.110000	   -0.070000	   10.085938
    3.7754	  0.001500	 -0.122000	  0.995500	   -0.220000	    0.070000	   -0.060000	   10.101563
    3.7854	  0.003500	 -0.121500	  0.994000	   -0.240000	    0.120000	    0.150000	   10.109375
    3.7954	  0.006000	 -0.124500	  0.993500	   -0.370000	    0.370000	    0.150000	   10.113281
    3.8054	  0.006000	 -0.126000	  0.991500	   -0.270000	    0.390000	    0.290000	   10.109375
    3.8156	  0.008000	 -0.126000	  0.992000	   -0.220000	    0.370000	    0.360000	   10.097656
    3.8254	  0.012000	 -0.127500	  0.985500	   -0.240000	    0.600000	    0.350000	   10.109375
    3.8354	  0.012000	 -0.134500	  0.982000	   -0.260000	    0.450000	    0.600000	   10.117188
    3.8454	  0.018000	 -0.139500	  0.981500	   -0.330000	    0.450000	    0.490000	   10.117188
    3.8554	  0.021500	 -0.142000	  0.980000	   -0.460000	    0.410000	    0.630000	   10.132813
    3.8654	  0.021000	 -0.142000	  0.985000	   -0.510000	    0.180000	    0.660000	   10.140625
    3.8754	  0.024500	 -0.143500	  0.989500	   -0.430000	    0.080000	    0.690000	   10.128906
    3.8854	  0.027500	 -0.147500	  0.990500	   -0.550000	    0.130000	    0.630000	   10.125000
    3.8956	  0.026500	 -0.147500	  0.991000	   -0.500000	    0.040000	    0.780000	   10.117188
    3.9054	  0.024500	 -0.151000	  0.994000	   -0.430000	    0.130000	    0.760000	   10.125000
    3.9154	  0.029000	 -0.149500	  1.004500	   -0.450000	    0.040000	    0.840000	   10.097656
    3.9254	  0.030500	 -0.150000	  1.000500	   -0.270000	   -0.140000	    0.710000	   10.105469
    3.9354	  0.032000	 -0.157000	  1.003000	   -0.330000	   -0.050000	    0.830000	   10.101563
    3.9454	  0.032000	 -0.160000	  1.006500	   -0.250000	   -0.310000	    0.800000	   10.105469
    3.9554	  0.029500	 -0.157500	  1.009000	   -0.160000	   -0.330000	    0.610000	   10.132813
    3.9654	  0.026000	 -0.156500	  1.007500	    0.090000	   -0.320000	    0.720000	   10.125000
    3.9756	  0.028500	 -0.157000	  1.002000	    0.070000	   -0.430000	    0.590000	   10.132813
    3.9854	  0.030000	 -0.162500	  0.998000	    0.050000	   -0.430000	    0.640000	   10.132813
    3.9954	  0.029000	 -0.166500	  0.998500	    0.120000	   -0.430000	    0.510000	   10.113281
    4.0054	  0.035000	 -0.162000	  0.995000	    0.290000	   -0.420000	    0.410000	   10.097656
    4.0154	  0.034000	 -0.159500	  0.996500	    0.250000	   -0.470000	    0.400000	   10.109375
    4.0254	  0.032500	 -0.160000	  0.996500	    0.270000	   -0.230000	    0.330000	   10.101563
    4.0354	  0.034500	 -0.160000	  0.997000	    0.320000	   -0.190000	    0.220000	   10.093750
    4.0454	  0.034000	 -0.160000	  0.992000	    0.410000	   -0.150000	    0.160000	   10.117188
    4.0556	  0.031500	 -0.158000	  0.992000	    0.480000	   -0.150000	    0.130000	   10.128906
    4.0654	  0.033500	 -0.159500	  0.992500	    0.370000	   -0.130000	   -0.050000	   10.117188
    4.0754	  0.029000	 -0.159500	  0.990500	    0.420000	   -0.220000	   -0.160000	   10.132813
    4.0854	  0.024000	 -0.153500	  0.991000	    0.480000	   -0.320000	   -0.170000	   10.128906
    4.0954	  0.023500	 -0.149000	  0.989500	    0.380000	   -0.390000	   -0.290000	   10.125000
    4.1054	  0.018500	 -0.151500	  0.991500	    0.240000	   -0.270000	   -0.340000	   10.121094
    4.1154	  0.014500	 -0.148000	  0.987000	    0.320000	   -0.340000	   -0.290000	   10.097656
    4.1254	  0.012000	 -0.145000	  0.978500	    0.190000	   -0.180000	   -0.250000	   10.085938
    4.1356	  0.006500	 -0.141000	  0.998500	   -0.260000	   -0.170000	   -0.310000	   10.117188
    4.1454	  0.009500	 -0.140000	  1.005500	    0.160000	   -0.150000	   -0.260000	   10.132813
    4.1554	  0.000000	 -0.126000	  1.012500	    0.050000	   -0.280000	   -0.250000	   10.121094
    4.1654	  0.000000	 -0.128500	  0.999500	    0.200000	   -0.290000	   -0.180000	   10.117188
    4.1754	 -0.001000	 -0.129500	  0.988500	    0.200000	   -0.240000	    0.090000	   10.113281
    4.1854	 -0.009500	 -0.129000	  0.991500	   -0.180000	   -0.360000	    0.130000	   10.132813
    4.1954	  0.005000	 -0.131500	  0.987000	    0.120000	   -0.490000	    0.280000	   10.128906
    4.2054	  0.008000	 -0.127500	  0.963500	    0.090000	   -0.360000	    0.380000	   10.128906
    4.2156	  0.007500	 -0.134000	  0.962000	   -0.390000	   -0.170000	    0.540000	   10.121094
    4.2254	  0.012500	 -0.141000	  0.976000	   -0.560000	   -0.050000	    0.520000	   10.101563
    4.2354	  0.007500	 -0.138500	  0.983000	   -0.320000	   -0.200000	    0.520000	   10.093750
    4.2455	  0.004500	 -0.140500	  0.973500	   -0.300000	   -0.040000	    0.780000	   10.101563
    4.2554	  0.013500	 -0.152500	  0.984500	   -0.450000	    0.110000	    0.950000	   10.093750
    4.2654	  0.016000	 -0.152000	  0.986500	   -0.410000	    0.110000	    0.910000	   10.093750
    4.2754	  0.021500	 -0.157000	  0.985500	   -0.240000	    0.080000	    0.970000	   10.109375
    4.2854	  0.028000	 -0.155000	  0.988000	   -0.410000	    0.130000	    0.960000	   10.101563
    4.2956	  0.031000	 -0.153500	  0.993500	   -0.360000	    0.210000	    0.990000	   10.113281
    4.3054	  0.029000	 -0.153500	  1.011500	   -0.420000	    0.090000	    1.000000	   10.121094
    4.3154	  0.039000	 -0.158500	  1.013000	   -0.200000	    0.050000	    0.990000	   10.121094
    4.3254	  0.035500	 -0.158000	  1.009500	    0.120000	   -0.080000	    0.920000	   10.128906
    4.3354	  0.033500	 -0.162500	  1.028000	    0.160000	   -0.110000	    0.870000	   10.117188
    4.3454	  0.038000	 -0.167500	  1.019000	    0.270000	   -0.310000	    0.810000	   10.136719
    4.3554	  0.039500	 -0.163500	  1.004000	    0.740000	   -0.360000	    0.790000	   10.113281
    4.3654	  0.038500	 -0.150000	  0.994500	    0.680000	   -0.430000	    0.720000	   10.105469
    4.3756	  0.046500	 -0.154000	  0.997500	    0.640000	   -0.430000	    0.570000	   10.117188
    4.3854	  0.048000	 -0.144000	  0.972500	    1.060000	   -0.290000	    0.520000	   10.117188
    4.3954	  0.036500	 -0.148000	  0.963500	    0.660000	    0.220000	    0.380000	   10.105469
    4.4054	  0.043000	 -0.155000	  0.975500	    0.300000	    0.200000	    0.420000	   10.078125
    4.4154	  0.053000	 -0.146000	  0.980000	    0.750000	    0.370000	    0.300000	   10.113281
    4.4254	  0.038000	 -0.134000	  0.969000	    0.630000	    0.650000	    0.320000	   10.140625
    4.4354	  0.043000	 -0.145500	  0.978000	    0.250000	    0.910000	    0.170000	   10.125000
    4.4455	  0.043000	 -0.126000	  0.993500	    0.150000	    1.140000	    0.210000	   10.105469
    4.4556	  0.027500	 -0.143500	  0.978500	    0.310000	    1.090000	    0.150000	   10.121094
    4.4654	  0.030500	 -0.130500	  0.996000	    0.300000	    0.980000	    0.040000	   10.117188
    4.4754	  0.020500	 -0.121500	  0.978500	   -0.300000	    1.170000	    0.040000	   10.097656
    4.4854	  0.007000	 -0.130500	  0.996000	    0.110000	    1.180000	    0.150000	   10.109375
    4.4954	 -0.000500	 -0.147000	  0.992000	   -0.100000	    1.140000	    0.170000	   10.109375
    4.5054	  0.006000	 -0.136000	  0.994500	   -0.360000	    1.290000	    0.200000	   10.125000
    4.5154	 -0.007000	 -0.129500	  0.993000	   -0.220000	    1.220000	    0.390000	   10.136719
    4.5254	 -0.015500	 -0.136500	  1.009500	   -0.280000	    1.180000	    0.370000	   10.113281
    4.5356	 -0.021000	 -0.152500	  1.004500	   -0.270000	    1.220000	    0.630000	   10.113281
    4.5454	 -0.033500	 -0.148500	  0.987500	   -0.070000	    0.700000	    0.780000	   10.109375
    4.5554	 -0.034000	 -0.148500	  0.984500	   -0.350000	    0.530000	    1.010000	   10.109375
    4.5654	 -0.037000	 -0.159000	  0.993500	   -0.500000	    0.180000	    1.080000	   10.121094
    4.5754	 -0.035000	 -0.165000	  0.999000	   -0.290000	   -0.360000	    1.220000	   10.117188
    4.5854	 -0.020500	 -0.159500	  0.993000	   -0.310000	   -0.930000	    1.380000	   10.117188
    4.5958	 -0.004500	 -0.154500	  0.994000	   -0.240000	   -1.070000	    1.440000	   10.109375
    4.6054	  0.004500	 -0.150000	  0.994000	    0.010000	   -1.200000	    1.480000	   10.105469
    4.6157	  0.020000	 -0.150500	  0.988500	   -0.130000	   -1.160000	    1.450000	   10.121094
    4.6254	  0.005000	 -0.151500	  1.004500	   -0.590000	   -1.110000	    1.460000	   10.117188
    4.6354	  0.004000	 -0.146000	  1.010500	    0.220000	   -1.490000	    1.500000	   10.125000
    4.6454	  0.026000	 -0.141500	  0.975000	    0.740000	   -1.400000	    1.570000	   10.101563
    4.6555	  0.046000	 -0.126500	  0.983000	   -0.410000	   -1.120000	    1.440000	   10.097656
    4.6654	  0.046500	 -0.119500	  1.010500	   -0.420000	   -1.070000	    1.240000	   10.101563
    4.6754	  0.060000	 -0.121000	  1.017000	    0.300000	   -0.890000	    1.120000	   10.113281
    4.6854	  0.068500	 -0.124500	  1.009000	    0.100000	   -0.550000	    0.870000	   10.109375
    4.6956	  0.056000	 -0.115000	  0.986500	    0.010000	   -0.200000	    0.830000	   10.097656
    4.7054	  0.051500	 -0.119500	  1.002500	   -0.300000	   -0.110000	    0.560000	   10.113281
    4.7154	  0.066000	 -0.133000	  1.013500	   -0.120000	    0.130000	    0.450000	   10.121094
    4.7254	  0.047000	 -0.131000	  1.000000	    0.070000	    0.220000	    0.260000	   10.113281
    4.7354	  0.030000	 -0.139500	  1.001000	   -0.180000	    0.190000	    0.230000	   10.097656
    4.7455	  0.026000	 -0.147000	  0.986500	    0.040000	    0.340000	    0.210000	   10.113281
    4.7554	  0.019500	 -0.163000	  0.973500	    0.080000	    0.530000	    0.320000	   10.128906
    4.7654	  0.006000	 -0.156500	  0.986500	   -0.560000	    0.280000	    0.240000	   10.132813
    4.7756	  0.010500	 -0.156500	  1.006500	   -0.450000	   -0.050000	    0.190000	   10.128906
    4.7854	  0.004500	 -0.167500	  1.002500	    0.090000	   -0.360000	    0.430000	   10.101563
    4.7954	  0.016500	 -0.166000	  0.993000	    0.170000	   -0.290000	    0.530000	   10.125000
    4.8054	  0.006500	 -0.152500	  0.977000	   -0.190000	   -0.590000	    0.620000	   10.117188
    4.8154	  0.015000	 -0.144500	  1.003500	    0.020000	   -0.850000	    0.640000	   10.117188
    4.8254	  0.006000	 -0.147000	  0.989500	    0.080000	   -1.170000	    0.640000	   10.117188
    4.8354	 -0.004000	 -0.138000	  0.979500	    0.150000	   -1.410000	    0.710000	   10.097656
    4.8455	  0.008000	 -0.134500	  0.969000	    0.480000	   -1.600000	    0.720000	   10.121094
    4.8556	  0.016500	 -0.125000	  0.973500	   -0.100000	   -1.540000	    0.790000	   10.144531
    4.8654	  0.017000	 -0.130000	  1.007500	   -0.270000	   -1.290000	    0.910000	   10.125000
    4.8754	  0.014000	 -0.141500	  1.009500	    0.030000	   -1.450000	    0.920000	   10.125000
    4.8854	  0.031500	 -0.141500	  1.010500	    0.440000	   -1.400000	    0.880000	   10.089844
    4.8954	  0.019500	 -0.155000	  0.988000	   -0.010000	   -0.980000	    0.920000	   10.089844
    4.9054	  0.020500	 -0.162500	  0.963500	    0.540000	   -0.740000	    1.040000	   10.101563
    4.9154	  0.038000	 -0.148000	  0.954000	    0.500000	   -0.680000	    1.130000	   10.109375
    4.9254	  0.036500	 -0.140000	  0.940000	   -0.180000	    0.090000	    1.000000	   10.125000
    4.9356	  0.030500	 -0.133500	  0.969000	   -0.520000	    0.260000	    0.990000	   10.121094
    4.9455	  0.028000	 -0.145500	  0.966000	   -0.410000	    0.280000	    1.080000	   10.117188
    4.9554	  0.045500	 -0.150500	  1.013500	   -0.750000	    0.320000	    1.100000	   10.125000
    4.9654	  0.061000	 -0.141500	  0.997000	   -0.340000	    0.530000	    1.120000	   10.140625
    4.9754	  0.047000	 -0.135000	  0.990500	    0.140000	    0.900000	    1.040000	   10.132813
    4.9854	  0.050500	 -0.150500	  0.946000	    0.190000	    0.820000	    0.920000	   10.125000
    4.9954	  0.069000	 -0.147000	  0.936500	   -0.250000	    1.100000	    0.830000	   10.117188
    5.0054	  0.041500	 -0.139500	  0.903500	   -0.350000	    1.140000	    0.840000	   10.082031
    5.0156	  0.054000	 -0.149000	  0.941500	   -1.320000	    1.120000	    0.830000	   10.093750
    5.0254	  0.074000	 -0.158000	  0.984500	   -1.380000	    1.470000	    0.780000	   10.093750
    5.0354	  0.047000	 -0.156000	  0.993500	   -1.040000	    1.080000	    0.670000	   10.097656
    5.0455	  0.044500	 -0.151500	  0.993000	   -0.470000	    0.750000	    0.610000	   10.109375
    5.0554	  0.031000	 -0.153500	  0.966000	   -0.820000	    0.820000	    0.670000	   10.101563
    5.0654	  0.009000	 -0.166000	  0.986500	   -1.130000	    1.110000	    0.780000	   10.140625
    5.0755	  0.018500	 -0.163000	  0.980500	   -0.870000	    0.950000	    0.750000	   10.148438
    5.0855	  0.001500	 -0.158500	  0.970000	   -0.550000	    0.680000	    0.920000	   10.132813
    5.0957	  0.007500	 -0.158000	  0.974000	   -0.540000	    0.570000	    0.950000	   10.125000
    5.1054	  0.015500	 -0.153500	  0.984500	   -0.710000	    0.800000	    0.940000	   10.109375
    5.1154	  0.006000	 -0.148000	  0.948000	   -0.810000	    0.660000	    0.980000	   10.132813
    5.1254	  0.023000	 -0.141000	  1.004000	   -0.790000	    0.790000	    0.890000	   10.109375
    5.1354	  0.007500	 -0.153500	  1.009500	   -0.960000	    0.970000	    0.990000	   10.125000
    5.1455	 -0.009500	 -0.148500	  1.031000	   -0.160000	    0.740000	    0.990000	   10.113281
    5.1554	 -0.009500	 -0.152500	  0.973000	    0.310000	    0.670000	    1.060000	   10.113281
    5.1654	  0.002500	 -0.151500	  0.996500	   -0.710000	    0.940000	    1.100000	   10.093750
    5.1757	 -0.026500	 -0.158500	  1.016000	   -0.560000	    0.660000	    1.090000	   10.117188
    5.1854	 -0.029500	 -0.136000	  1.044000	    0.010000	    0.350000	    1.340000	   10.132813
    5.1954	  0.001000	 -0.146000	  1.008000	    0.220000	    0.200000	    1.220000	   10.125000
    5.2054	  0.020000	 -0.159000	  1.035500	   -0.450000	    0.520000	    1.270000	   10.125000
    5.2154	  0.012000	 -0.157000	  1.032000	    0.100000	    0.350000	    1.240000	   10.121094
    5.2254	  0.020500	 -0.142500	  1.030000	    0.780000	   -0.170000	    1.150000	   10.093750
    5.2355	  0.013000	 -0.140000	  1.002000	    0.600000	   -0.360000	    1.080000	   10.125000
    5.2455	  0.009000	 -0.150000	  1.017500	    0.200000	   -0.540000	    1.110000	   10.117188
    5.2557	  0.007000	 -0.155000	  0.997000	    0.430000	   -0.560000	    1.140000	   10.097656
    5.2654	  0.007500	 -0.155500	  1.021000	    0.060000	   -0.550000	    1.030000	   10.109375
    5.2754	  0.007000	 -0.185000	  1.057000	    0.530000	   -0.570000	    0.910000	   10.117188
    5.2855	  0.011000	 -0.169500	  1.015000	    1.190000	   -0.750000	    0.910000	   10.144531
    5.2954	  0.017000	 -0.151500	  0.988000	    1.270000	   -1.270000	    0.790000	   10.117188
    5.3054	  0.009000	 -0.146000	  0.994000	    0.480000	   -1.090000	    0.820000	   10.109375
    5.3154	 -0.008500	 -0.173500	  0.977000	    0.550000	   -1.510000	    0.760000	   10.121094
    5.3254	  0.014500	 -0.164500	  0.986000	    0.900000	   -1.550000	    0.700000	   10.121094
    5.3357	  0.020500	 -0.146500	  0.995000	    0.130000	   -1.100000	    0.740000	   10.117188
    5.3455	  0.013500	 -0.135000	  1.031500	    0.360000	   -1.190000	    0.700000	   10.121094
    5.3555	  0.052000	 -0.126000	  1.057000	    0.970000	   -1.070000	    0.640000	   10.105469
    5.3655	  0.052500	 -0.145500	  1.003500	    0.930000	   -0.940000	    0.550000	   10.101563
    5.3755	  0.039500	 -0.142500	  1.014500	    0.620000	   -0.880000	    0.410000	   10.101563
    5.3855	  0.041000	 -0.149500	  1.028500	    0.280000	   -0.860000	    0.390000	   10.105469
    5.3955	  0.039000	 -0.133500	  1.035500	    0.890000	   -0.580000	    0.220000	   10.105469
    5.4055	  0.010000	 -0.139000	  1.017500	    1.130000	   -0.610000	    0.390000	   10.132813
    5.4157	  0.015500	 -0.153000	  1.010000	    0.530000	   -0.680000	    0.440000	   10.148438
    5.4254	  0.051000	 -0.160500	  0.998500	    0.720000	   -0.850000	    0.430000	   10.117188
    5.4355	  0.031500	 -0.168000	  0.973000	    0.840000	   -0.940000	    0.410000	   10.121094
    5.4455	  0.003500	 -0.160500	  0.963500	    0.540000	   -1.130000	    0.380000	   10.125000
    5.4555	 -0.004000	 -0.137000	  0.958500	    0.720000	   -1.800000	    0.400000	   10.117188
    5.4655	 -0.028500	 -0.105000	  0.908500	    0.540000	   -1.730000	    0.570000	   10.132813
    5.4755	 -0.008000	 -0.146500	  0.899500	   -0.330000	   -1.910000	    0.920000	   10.152344
    5.4855	  0.046000	 -0.124000	  0.942000	   -1.550000	   -1.970000	    0.860000	   10.144531
    5.4957	  0.022500	 -0.114500	  0.977500	   -1.350000	   -1.600000	    0.640000	   10.117188
    5.5055	  0.023500	 -0.123000	  1.024500	   -0.910000	   -1.600000	    0.700000	   10.117188
    5.5155	  0.049000	 -0.141000	  0.975000	   -0.210000	   -1.660000	    0.760000	   10.101563
    5.5255	  0.052000	 -0.145500	  0.974500	   -0.580000	   -1.180000	    0.710000	   10.097656
    5.5355	  0.034500	 -0.167500	  0.971000	   -1.570000	   -0.670000	    0.880000	   10.117188
    5.5455	  0.031000	 -0.185500	  0.984000	   -0.970000	   -0.760000	    0.790000	   10.132813
    5.5555	  0.033500	 -0.184000	  0.992000	   -0.510000	   -0.940000	    0.700000	   10.128906
    5.5655	  0.018500	 -0.171000	  0.924000	   -0.270000	   -0.740000	    0.790000	   10.113281
    5.5757	  0.012500	 -0.168500	  0.901000	   -0.370000	   -0.660000	    0.990000	   10.125000
    5.5855	 -0.011000	 -0.170500	  0.854000	   -0.770000	   -0.480000	    1.090000	   10.125000
    5.5958	  0.013000	 -0.127000	  0.885500	   -1.640000	   -0.250000	    1.230000	   10.117188
    5.6055	  0.002000	 -0.115500	  0.911500	   -1.980000	   -0.240000	    1.160000	   10.113281
    5.6155	 -0.011500	 -0.121500	  0.940500	   -1.970000	   -0.520000	    1.180000	   10.125000
    5.6255	  0.012000	 -0.123500	  0.955000	   -1.980000	   -0.830000	    1.220000	   10.132813
    5.6355	 -0.003000	 -0.112500	  0.969000	   -2.750000	   -0.870000	    1.280000	   10.105469
    5.6455	  0.015500	 -0.116500	  1.004500	   -2.210000	   -0.750000	    1.460000	   10.101563
    5.6557	  0.034000	 -0.139500	  1.045000	   -2.510000	   -0.350000	    1.360000	   10.109375
    5.6655	  0.045000	 -0.155500	  1.047500	   -1.920000	   -0.280000	    1.220000	   10.136719
    5.6755	  0.047000	 -0.184500	  1.005000	   -0.990000	   -0.610000	    1.060000	   10.140625
    5.6855	  0.033000	 -0.178500	  0.988500	   -1.650000	   -0.300000	    1.150000	   10.125000
    5.6955	  0.032500	 -0.207000	  0.976000	   -1.720000	   -0.440000	    0.960000	   10.132813
    5.7055	  0.051500	 -0.171000	  1.006000	   -1.160000	   -0.310000	    0.990000	   10.121094
    5.7155	  0.026000	 -0.176000	  0.960000	   -1.420000	   -0.040000	    1.000000	   10.132813
    5.7255	 -0.018000	 -0.164000	  0.990000	   -1.280000	   -0.340000	    1.240000	   10.132813
    5.7357	  0.074500	 -0.131500	  0.945000	   -1.220000	    0.160000	    1.430000	   10.097656
    5.7455	  0.068000	 -0.134000	  0.961000	   -1.620000	    0.450000	    1.450000	   10.097656
    5.7555	  0.044000	 -0.128000	  1.025500	   -2.040000	    0.870000	    1.530000	   10.117188
    5.7655	  0.054000	 -0.150000	  1.011000	   -0.790000	    0.030000	    1.320000	   10.132813
    5.7755	  0.129000	 -0.142500	  1.046500	   -1.210000	    0.090000	    1.160000	   10.140625
    5.7855	  0.084000	 -0.144500	  1.028500	   -1.340000	    0.200000	    1.010000	   10.148438
    5.7955	  0.033000	 -0.171500	  1.071500	   -1.140000	    0.390000	    0.910000	   10.132813
    5.8055	  0.035500	 -0.173000	  1.030500	   -0.520000	    0.080000	    1.000000	   10.125000
    5.8157	  0.026000	 -0.170000	  1.005500	   -0.450000	    0.370000	    1.160000	   10.121094
    5.8255	 -0.010500	 -0.173000	  1.007500	   -0.650000	   -0.150000	    1.140000	   10.117188
    5.8355	  0.012000	 -0.175500	  0.999500	   -0.700000	   -0.170000	    1.380000	   10.113281
    5.8455	  0.054000	 -0.145500	  0.980000	   -0.360000	    0.130000	    1.270000	   10.113281
    5.8555	 -0.013500	 -0.174000	  1.008000	   -1.090000	    0.720000	    1.300000	   10.117188
    5.8655	  0.048500	 -0.160500	  1.062000	   -0.580000	    0.060000	    1.260000	   10.117188
    5.8755	  0.080000	 -0.094500	  1.031500	    0.510000	   -0.210000	    1.110000	   10.136719
    5.8855	  0.053000	 -0.136000	  1.070500	   -1.180000	    0.230000	    0.900000	   10.136719
    5.8957	  0.086000	 -0.155000	  1.079500	   -0.210000	    0.700000	    0.850000	   10.132813
    5.9055	  0.091000	 -0.164000	  1.078500	    0.780000	    1.130000	    0.680000	   10.117188
    5.9155	  0.064500	 -0.156000	  1.051500	    0.630000	    1.610000	    0.550000	   10.105469
    5.9255	  0.033000	 -0.169000	  1.062000	    0.560000	    1.290000	    0.480000	   10.136719
    5.9355	  0.039000	 -0.200500	  1.021500	    1.070000	    1.010000	    0.390000	   10.128906
    5.9455	  0.025000	 -0.166500	  1.006500	    0.900000	    1.690000	    0.470000	   10.125000
    5.9555	 -0.004000	 -0.173500	  0.991500	    1.070000	    1.720000	    0.580000	   10.121094
    5.9655	 -0.008000	 -0.161500	  1.000500	    1.070000	    1.710000	    0.640000	   10.105469
    5.9757	  0.014500	 -0.171500	  0.988000	    1.400000	    0.910000	    0.760000	   10.105469
    5.9855	  0.011500	 -0.125500	  0.971500	    1.060000	    0.820000	    0.770000	   10.132813
    5.9955	  0.006000	 -0.135500	  1.018000	    0.500000	    0.610000	    0.860000	   10.144531
    6.0055	  0.017500	 -0.149500	  1.010500	    1.300000	    0.110000	    0.720000	   10.101563
    6.0155	  0.035500	 -0.129500	  0.996500	    1.920000	    0.220000	    0.930000	   10.089844
    6.0255	  0.019000	 -0.169500	  0.978500	    0.690000	    0.530000	    0.890000	   10.117188
    6.0355	  0.012500	 -0.137500	  0.990000	    1.050000	   -0.010000	    0.740000	   10.128906
    6.0455	  0.021000	 -0.124000	  0.997000	    1.390000	    0.140000	    0.770000	   10.128906
    6.0557	  0.015500	 -0.159500	  0.993500	    0.340000	    0.230000	    0.870000	   10.125000
    6.0655	  0.017500	 -0.189000	  0.952500	    1.610000	    0.040000	    0.860000	   10.113281
    6.0755	  0.029500	 -0.111500	  0.959500	    1.540000	    0.570000	    0.900000	   10.101563
    6.0855	 -0.002500	 -0.134000	  0.940000	   -0.040000	    0.580000	    1.020000	   10.109375
    6.0955	  0.014500	 -0.145500	  1.011500	    0.320000	    0.220000	    0.830000	   10.132813
    6.1055	  0.024500	 -0.159500	  0.925500	    0.970000	    0.000000	    0.760000	   10.136719
    6.1155	  0.002000	 -0.135500	  0.951500	    0.630000	    0.330000	    0.820000	   10.132813
    6.1255	  0.007000	 -0.165000	  0.941000	   -0.180000	    0.580000	    0.960000	   10.109375
    6.1357	  0.020000	 -0.130500	  0.975500	   -0.160000	    0.570000	    0.970000	   10.121094
    6.1455	  0.008500	 -0.155000	  0.946500	    0.550000	    0.320000	    0.900000	   10.109375
    6.1555	  0.022000	 -0.139000	  0.943500	   -0.060000	    0.370000	    0.880000	   10.109375
    6.1655	  0.011000	 -0.141500	  0.950000	   -0.580000	    0.240000	    0.750000	   10.085938
    6.1755	 -0.017000	 -0.132500	  0.934000	   -0.120000	    0.290000	    0.860000	   10.117188
    6.1855	 -0.003500	 -0.141000	  0.953000	   -0.720000	    0.310000	    0.960000	   10.101563
    6.1955	  0.004000	 -0.162000	  0.944500	   -1.020000	    0.090000	    0.980000	   10.117188
    6.2055	  0.008500	 -0.136500	  0.960500	   -0.880000	   -0.030000	    1.020000	   10.121094
    6.2157	  0.030000	 -0.116500	  0.960000	   -0.930000	   -0.370000	    1.060000	   10.121094
    6.2255	  0.011000	 -0.150500	  0.984500	   -1.720000	   -0.080000	    0.870000	   10.109375
    6.2355	 -0.032500	 -0.122500	  0.968000	   -1.070000	   -0.660000	    0.880000	   10.109375
    6.2455	 -0.017000	 -0.137000	  0.927500	   -0.590000	   -0.810000	    1.200000	   10.113281
    6.2555	  0.016000	 -0.177500	  0.901000	   -1.610000	   -0.580000	    1.230000	   10.148438
    6.2655	  0.014000	 -0.149500	  0.952500	   -2.920000	   -0.100000	    1.140000	   10.128906
    6.2755	  0.009000	 -0.132000	  0.986500	   -1.960000	   -0.390000	    1.090000	   10.136719
    6.2855	  0.021500	 -0.149000	  0.949500	   -1.630000	   -0.600000	    1.140000	   10.097656
    6.2957	  0.037000	 -0.151500	  0.960000	   -1.960000	   -0.130000	    1.100000	   10.113281
    6.3055	 -0.009000	 -0.093500	  0.952000	   -2.850000	    0.200000	    1.130000	   10.140625
    6.3155	  0.054500	 -0.156500	  1.035000	   -2.810000	   -0.040000	    1.080000	   10.128906
    6.3255	  0.061000	 -0.158500	  0.962000	   -1.860000	    0.360000	    1.060000	   10.125000
    6.3355	  0.019500	 -0.159000	  0.990500	   -2.700000	    0.770000	    1.050000	   10.097656
    6.3455	  0.005500	 -0.155500	  1.027500	   -2.520000	    0.480000	    1.110000	   10.105469
    6.3555	  0.040500	 -0.138500	  1.058500	   -2.500000	    0.030000	    1.240000	   10.121094
    6.3655	  0.005000	 -0.149000	  1.014500	   -1.730000	   -0.750000	    1.090000	   10.125000
    6.3757	  0.032500	 -0.137000	  1.039500	   -2.160000	   -0.600000	    1.190000	   10.132813
    6.3855	 -0.002500	 -0.130500	  1.053500	   -2.500000	   -1.060000	    1.230000	   10.132813
    6.3955	  0.010500	 -0.140500	  1.117000	   -1.540000	   -1.380000	    1.220000	   10.125000
    6.4055	  0.025500	 -0.155500	  1.053500	   -0.560000	   -2.020000	    1.350000	   10.144531
    6.4155	  0.050500	 -0.157000	  1.033000	   -0.800000	   -1.780000	    1.280000	   10.140625
    6.4255	  0.086500	 -0.165500	  0.995000	   -0.260000	   -1.700000	    1.360000	   10.125000
    6.4355	  0.071000	 -0.192000	  0.987500	   -1.210000	   -1.080000	    0.850000	   10.097656
    6.4455	  0.087500	 -0.185500	  1.029000	   -1.140000	   -1.330000	    0.580000	   10.105469
    6.4557	  0.081500	 -0.150500	  1.008500	   -0.440000	   -0.940000	    0.610000	   10.109375
    6.4655	  0.011500	 -0.158500	  1.009000	   -0.530000	   -0.270000	    0.620000	   10.113281
    6.4755	  0.034000	 -0.112500	  1.059500	   -1.170000	   -0.290000	    0.700000	   10.136719
    6.4855	 -0.006000	 -0.120500	  1.063000	   -0.430000	    0.490000	    0.790000	   10.125000
    6.4955	 -0.042000	 -0.121000	  1.082500	   -0.300000	    0.400000	    1.050000	   10.101563
    6.5055	 -0.009500	 -0.174000	  1.106000	   -0.170000	    0.510000	    1.020000	   10.128906
    6.5155	 -0.018000	 -0.182000	  1.063500	    1.240000	    0.180000	    1.340000	   10.113281
    6.5255	 -0.007000	 -0.170500	  0.989000	    1.330000	    0.320000	    1.420000	   10.121094
    6.5357	  0.059500	 -0.155000	  1.044500	    0.780000	    0.170000	    1.470000	   10.113281
    6.5455	  0.062000	 -0.174000	  0.983500	    1.500000	    0.130000	    1.330000	   10.105469
    6.5555	  0.053000	 -0.172500	  0.959000	    1.760000	    0.000000	    1.200000	   10.097656
    6.5655	  0.094000	 -0.166000	  0.932500	    1.070000	    0.220000	    1.220000	   10.113281
    6.5755	  0.068000	 -0.143000	  0.959000	    0.360000	    0.580000	    1.080000	   10.148438
    6.5855	  0.012500	 -0.122000	  0.999000	    0.440000	    0.310000	    0.950000	   10.125000
    6.5959	  0.068500	 -0.128000	  0.991500	    0.860000	    0.020000	    1.060000	   10.097656
    6.6055	  0.117500	 -0.148000	  0.969000	    0.640000	    0.090000	    0.960000	   10.121094
    6.6157	  0.046500	 -0.143500	  0.996000	    0.170000	    0.640000	    0.680000	   10.125000
    6.6255	  0.020500	 -0.153500	  1.025000	    0.100000	   -0.140000	    0.500000	   10.105469
    6.6355	  0.023000	 -0.169000	  0.981000	    1.100000	   -0.360000	    0.710000	   10.101563
    6.6455	  0.006500	 -0.108500	  0.950500	    1.160000	    0.190000	    0.700000	   10.093750
    6.6555	  0.012500	 -0.116000	  0.920000	   -0.060000	    0.210000	    0.710000	   10.125000
    6.6655	  0.011500	 -0.134500	  0.988500	   -0.810000	    0.130000	    0.660000	   10.125000
    6.6755	  0.051000	 -0.140500	  0.963500	   -0.470000	   -0.340000	    0.780000	   10.121094
    6.6855	  0.046500	 -0.144500	  0.969500	   -0.510000	    0.460000	    0.660000	   10.105469
    6.6957	 -0.000500	 -0.155000	  0.957500	   -0.360000	    0.970000	    0.730000	   10.097656
    6.7055	  0.017000	 -0.123000	  1.010000	   -0.880000	    1.160000	    0.570000	   10.121094
    6.7155	  0.005500	 -0.158000	  0.962000	    0.000000	    0.480000	    0.530000	   10.117188
    6.7255	  0.009500	 -0.146000	  0.909000	    0.690000	    0.570000	    0.770000	   10.113281
    6.7355	 -0.001000	 -0.135500	  0.868000	   -1.140000	    1.150000	    1.000000	   10.132813
    6.7455	  0.028500	 -0.157500	  0.907000	   -2.600000	    1.480000	    0.930000	   10.160156
    6.7555	  0.019500	 -0.155000	  1.005500	   -2.100000	    1.040000	    0.760000	   10.117188
    6.7655	 -0.013000	 -0.135500	  0.975500	   -0.290000	    0.100000	    0.890000	   10.132813
    6.7757	 -0.027500	 -0.114000	  0.931000	   -1.130000	   -0.270000	    0.940000	   10.136719
    6.7855	  0.039500	 -0.108500	  0.982000	   -2.260000	   -0.040000	    1.130000	   10.132813
    6.7955	 -0.007000	 -0.166000	  0.977000	   -2.020000	    0.000000	    1.130000	   10.140625
    6.8055	  0.005500	 -0.176000	  1.018500	   -1.250000	   -0.850000	    1.000000	   10.132813
    6.8155	  0.022500	 -0.093500	  0.963000	   -1.030000	   -1.420000	    0.700000	   10.136719
    6.8255	 -0.026000	 -0.142500	  0.949000	   -1.490000	   -1.410000	    0.990000	   10.132813
    6.8355	 -0.049000	 -0.156500	  0.969500	   -2.880000	   -1.260000	    0.870000	   10.117188
    6.8456	  0.031000	 -0.161000	  1.024500	   -1.800000	   -1.760000	    1.110000	   10.109375
    6.8557	  0.033000	 -0.170500	  0.951500	   -0.900000	   -1.220000	    1.110000	   10.109375
    6.8655	  0.018000	 -0.146000	  1.013000	   -2.030000	   -1.080000	    0.910000	   10.101563
    6.8755	  0.030000	 -0.160500	  0.967500	   -1.260000	   -1.320000	    0.750000	   10.136719
    6.8855	 -0.012500	 -0.145000	  1.008500	   -1.540000	   -1.160000	    0.830000	   10.136719
    6.8955	  0.018500	 -0.171500	  0.943500	   -1.320000	   -1.240000	    0.910000	   10.132813
    6.9055	  0.044000	 -0.144000	  1.001000	   -1.790000	   -0.980000	    0.980000	   10.117188
    6.9156	  0.058500	 -0.145000	  1.040500	   -1.470000	   -1.070000	    0.860000	   10.121094
    6.9255	 -0.002500	 -0.154000	  1.016000	   -0.790000	   -1.310000	    0.550000	   10.140625
    6.9357	  0.025500	 -0.157500	  1.031500	   -0.570000	   -1.580000	    0.550000	   10.128906
    6.9456	  0.000000	 -0.127500	  1.029000	   -1.140000	   -1.730000	    0.740000	   10.128906
    6.9555	 -0.006500	 -0.127000	  1.064000	   -1.310000	   -1.770000	    0.800000	   10.140625
    6.9655	 -0.011500	 -0.147000	  1.048500	   -1.180000	   -2.330000	    0.990000	   10.128906
    6.9755	  0.094500	 -0.177000	  1.017000	   -0.240000	   -2.450000	    0.750000	   10.132813
    6.9855	  0.037000	 -0.152000	  0.979500	   -0.410000	   -1.980000	    0.380000	   10.121094
    6.9955	  0.022000	 -0.160500	  1.059500	   -1.910000	   -1.540000	    0.240000	   10.121094
    7.0055	  0.035500	 -0.126000	  1.052500	   -0.280000	   -1.510000	    0.320000	   10.117188
    7.0157	  0.007500	 -0.126500	  1.062500	    0.320000	   -0.920000	    0.500000	   10.117188
    7.0255	  0.055000	 -0.139500	  1.042500	   -0.850000	   -0.610000	    0.480000	   10.109375
    7.0355	  0.080000	 -0.178000	  1.070000	   -0.250000	   -0.860000	    0.150000	   10.128906
    7.0455	  0.013000	 -0.148000	  1.045000	    0.520000	   -1.050000	    0.110000	   10.113281
    7.0556	  0.032500	 -0.143500	  1.036500	   -0.530000	   -0.630000	    0.060000	   10.125000
    7.0655	  0.055500	 -0.155000	  1.060000	    0.300000	   -0.760000	    0.110000	   10.125000
    7.0755	  0.018000	 -0.166500	  0.994500	    0.860000	   -0.570000	    0.100000	   10.125000
    7.0855	  0.038000	 -0.147000	  1.006500	   -0.070000	   -1.040000	    0.020000	   10.117188
    7.0957	  0.055000	 -0.143000	  0.991000	    0.090000	   -0.770000	    0.180000	   10.117188
    7.1055	 -0.007500	 -0.127500	  1.007500	   -0.220000	   -0.620000	    0.100000	   10.121094
    7.1155	  0.034000	 -0.115500	  1.055500	   -0.300000	   -0.830000	    0.400000	   10.128906
    7.1255	  0.048500	 -0.168000	  1.006000	    0.520000	   -0.370000	    0.170000	   10.105469
    7.1355	  0.005500	 -0.140000	  0.993500	    0.490000	   -0.300000	    0.250000	   10.132813
    7.1456	  0.050000	 -0.176500	  0.987000	    0.050000	   -0.520000	    0.320000	   10.109375
    7.1555	  0.055500	 -0.136500	  1.032000	   -0.130000	    0.150000	    0.320000	   10.109375
    7.1655	  0.031000	 -0.131000	  0.978000	    0.220000	    0.130000	    0.310000	   10.125000
    7.1757	  0.080500	 -0.145000	  0.965500	    1.100000	    0.070000	    0.250000	   10.125000
    7.1855	  0.083000	 -0.149500	  0.936500	    0.430000	    0.480000	    0.090000	   10.109375
    7.1955	  0.029500	 -0.159000	  0.900500	    0.030000	    0.510000	    0.100000	   10.113281
    7.2055	  0.006000	 -0.151500	  0.885500	   -0.870000	    1.000000	    0.290000	   10.105469
    7.2155	  0.075000	 -0.170500	  0.936500	   -1.230000	    0.730000	    0.370000	   10.105469
    7.2255	  0.020000	 -0.109000	  1.009500	   -0.410000	    0.890000	    0.400000	   10.097656
    7.2355	  0.053000	 -0.105000	  0.965000	   -0.150000	    0.350000	    0.210000	   10.085938
    7.2456	  0.062500	 -0.163000	  0.953500	   -0.110000	    0.320000	   -0.040000	   10.101563
    7.2557	  0.028500	 -0.159000	  0.963500	   -0.990000	    0.540000	   -0.120000	   10.136719
    7.2655	 -0.031000	 -0.183000	  0.963000	   -1.250000	    0.920000	    0.040000	   10.140625
    7.2755	 -0.005000	 -0.152000	  1.026500	    0.380000	    0.440000	    0.350000	   10.136719
    7.2855	  0.052500	 -0.126500	  1.023000	    0.420000	    0.440000	    0.410000	   10.140625
    7.2955	  0.006000	 -0.145000	  0.983000	    0.660000	    0.650000	    0.340000	   10.132813
    7.3055	 -0.022000	 -0.115500	  1.009000	    0.350000	    0.430000	    0.450000	   10.132813
    7.3155	  0.000500	 -0.156500	  0.991000	    0.950000	   -0.250000	    0.550000	   10.113281
    7.3255	  0.009000	 -0.172000	  1.020500	    0.800000	   -0.040000	    0.700000	   10.097656
    7.3357	 -0.027000	 -0.126500	  1.002500	    1.210000	    0.040000	    0.940000	   10.093750
    7.3456	  0.045500	 -0.140000	  0.956500	    1.700000	    0.100000	    1.030000	   10.109375
    7.3555	  0.029500	 -0.128000	  0.961500	    1.300000	    0.960000	    0.830000	   10.128906
    7.3655	 -0.040000	 -0.135000	  0.938500	    0.690000	    0.930000	    1.010000	   10.132813
    7.3755	  0.044500	 -0.108000	  0.968500	    0.470000	    1.020000	    1.260000	   10.117188
    7.3855	  0.022000	 -0.131500	  0.945000	   -0.120000	    1.420000	    1.180000	   10.121094
    7.3955	  0.020500	 -0.210000	  1.001000	    0.460000	    1.160000	    1.190000	   10.125000
    7.4055	  0.013000	 -0.140500	  0.992500	    0.370000	    1.120000	    1.030000	   10.117188
    7.4157	 -0.023000	 -0.129500	  0.967500	    0.620000	    0.510000	    1.150000	   10.125000
    7.4255	  0.007000	 -0.126000	  0.998000	    0.450000	    0.210000	    1.290000	   10.113281
    7.4355	  0.048000	 -0.140000	  1.025500	   -0.210000	    0.150000	    1.240000	   10.101563
    7.4456	  0.024500	 -0.171500	  1.013000	    1.080000	   -0.320000	    0.940000	   10.097656
    7.4555	  0.009500	 -0.120500	  0.984500	    0.960000	   -0.590000	    0.900000	   10.109375
    7.4655	 -0.033500	 -0.127500	  1.051000	    0.350000	   -0.800000	    1.120000	   10.109375
    7.4755	 -0.020000	 -0.111000	  1.026000	    0.960000	   -1.010000	    1.630000	   10.121094
    7.4855	  0.052000	 -0.211500	  0.963000	    1.770000	   -1.720000	    1.290000	   10.140625
    7.4958	  0.078500	 -0.144000	  1.002000	    1.240000	   -1.750000	    1.170000	   10.113281
    7.5055	  0.020000	 -0.128500	  0.944000	    1.210000	   -1.960000	    0.880000	   10.113281
    7.5155	  0.033500	 -0.117000	  0.988500	    1.290000	   -1.900000	    1.050000	   10.113281
    7.5255	  0.040500	 -0.117000	  0.990000	    0.120000	   -1.310000	    0.890000	   10.101563
    7.5355	  0.015000	 -0.195000	  1.012500	    1.290000	   -1.740000	    1.060000	   10.089844
    7.5455	  0.052500	 -0.122000	  0.963500	    2.190000	   -1.770000	    0.950000	   10.097656
    7.5555	  0.011500	 -0.146000	  0.997000	    0.080000	   -1.640000	    1.010000	   10.156250
    7.5655	  0.026500	 -0.089500	  1.084000	    0.440000	   -2.120000	    1.000000	   10.144531
    7.5757	 -0.013500	 -0.140000	  1.102000	    2.040000	   -2.650000	    1.060000	   10.125000
    7.5855	 -0.007000	 -0.115000	  1.004000	    2.740000	   -2.750000	    1.380000	   10.125000
    7.5959	  0.052000	 -0.145000	  0.985000	    2.240000	   -2.320000	    1.320000	   10.136719
    7.6056	  0.041000	 -0.171500	  1.019000	    1.760000	   -1.630000	    1.220000	   10.132813
    7.6155	 -0.014500	 -0.092000	  0.970500	    2.210000	   -1.950000	    1.360000	   10.109375
    7.6255	  0.023500	 -0.106000	  0.986000	    2.830000	   -1.460000	    1.290000	   10.097656
    7.6356	 -0.011500	 -0.125000	  0.963000	    1.670000	   -1.350000	    1.520000	   10.097656
    7.6456	  0.054500	 -0.109500	  0.986000	    2.030000	   -1.180000	    1.590000	   10.117188
    7.6558	  0.036500	 -0.115000	  0.987500	    2.290000	   -1.280000	    1.610000	   10.117188
    7.6656	  0.073500	 -0.104500	  1.085500	    1.120000	   -1.640000	    1.350000	   10.109375
    7.6755	  0.047000	 -0.067500	  1.015500	    2.160000	   -1.810000	    1.180000	   10.121094
    7.6855	  0.037500	 -0.155500	  0.993000	    2.410000	   -1.740000	    1.440000	   10.132813
    7.6955	  0.081500	 -0.120500	  0.971000	    0.890000	   -1.570000	    1.250000	   10.152344
    7.7056	  0.104500	 -0.084000	  1.021000	    0.610000	   -1.780000	    0.970000	   10.136719
    7.7156	  0.066000	 -0.111500	  1.050500	    1.520000	   -1.320000	    1.020000	   10.132813
    7.7255	  0.090500	 -0.086000	  0.993500	    2.110000	   -0.980000	    0.880000	   10.109375
    7.7358	  0.076000	 -0.042500	  0.960000	    1.710000	   -0.730000	    0.840000	   10.109375
    7.7456	  0.063000	 -0.075000	  0.952500	    0.270000	   -0.200000	    0.820000	   10.117188
    7.7556	  0.083500	 -0.117000	  1.030000	   -0.660000	   -0.330000	    0.740000	   10.101563
    7.7656	  0.021000	 -0.125000	  1.025500	   -0.150000	   -0.860000	    0.680000	   10.132813
    7.7756	  0.012000	 -0.133000	  1.062500	    0.770000	   -1.430000	    0.780000	   10.152344
    7.7856	  0.018000	 -0.113000	  1.005000	    1.170000	   -1.570000	    1.010000	   10.113281
    7.7956	  0.038500	 -0.117500	  0.988000	    1.120000	   -2.050000	    1.140000	   10.132813
    7.8055	  0.064500	 -0.124500	  0.985000	    1.480000	   -2.160000	    1.150000	   10.132813
    7.8158	  0.083000	 -0.053000	  0.946500	    0.530000	   -1.720000	    0.860000	   10.109375
    7.8255	  0.024500	 -0.079500	  0.983000	    1.470000	   -1.590000	    1.070000	   10.136719
    7.8355	 -0.028500	 -0.112000	  0.921000	    1.730000	   -0.690000	    1.230000	   10.132813
    7.8456	  0.018500	 -0.092000	  0.858500	    0.360000	   -0.320000	    1.460000	   10.128906
    7.8556	  0.024000	 -0.119500	  0.854500	   -0.590000	    0.160000	    1.610000	   10.140625
    7.8655	  0.080500	 -0.112500	  0.878500	   -0.610000	   -0.080000	    1.510000	   10.128906
    7.8756	  0.086000	 -0.090000	  0.907000	   -0.730000	   -0.250000	    1.330000	   10.113281
    7.8855	  0.062000	 -0.050000	  0.915000	   -1.080000	   -0.250000	    1.130000	   10.128906
    7.8958	  0.008500	 -0.098000	  0.876500	   -1.430000	   -0.080000	    1.180000	   10.132813
    7.9055	  0.057500	 -0.100000	  1.002500	   -2.820000	   -0.060000	    1.340000	   10.128906
    7.9155	  0.090500	 -0.157500	  0.957500	   -1.850000	   -0.070000	    1.200000	   10.152344
    7.9256	  0.046000	 -0.046000	  0.985500	   -0.300000	   -0.320000	    1.030000	   10.117188
    7.9355	  0.092000	 -0.080500	  0.976000	   -1.830000	    0.080000	    0.900000	   10.113281
    7.9456	  0.139000	 -0.062000	  1.028000	   -2.630000	    1.230000	    0.850000	   10.121094
    7.9556	 -0.014500	 -0.177000	  0.966000	   -1.030000	    1.050000	    0.570000	   10.117188
    7.9656	  0.029000	 -0.149500	  0.986500	   -1.350000	    0.280000	    0.710000	   10.117188
    7.9758	  0.004000	 -0.083500	  0.982000	   -1.080000	    0.300000	    0.910000	   10.128906
    7.9856	 -0.032500	 -0.088000	  0.956500	   -1.700000	   -0.520000	    1.270000	   10.128906
    7.9955	  0.077500	 -0.094000	  0.990000	   -0.900000	   -0.710000	    1.170000	   10.113281
    8.0056	  0.092500	 -0.095500	  0.936500	   -0.710000	   -0.400000	    1.110000	   10.117188
    8.0156	  0.022500	 -0.095000	  0.894000	   -1.870000	    0.320000	    0.670000	   10.109375
    8.0256	  0.000500	 -0.114000	  0.979500	   -2.890000	    0.520000	    1.010000	   10.128906
    8.0356	 -0.005500	 -0.095500	  0.965500	   -1.980000	    0.470000	    1.480000	   10.105469
    8.0456	  0.083000	 -0.133500	  0.992500	   -1.520000	    0.640000	    1.740000	   10.101563
    8.0558	  0.055500	 -0.104000	  0.935500	   -1.530000	    0.830000	    1.470000	   10.117188
    8.0656	  0.046000	 -0.072000	  0.977000	   -2.450000	    1.110000	    1.350000	   10.113281
    8.0756	 -0.010500	 -0.116500	  0.984500	   -2.360000	    0.730000	    1.340000	   10.113281
    8.0856	  0.008500	 -0.121000	  0.996000	   -2.490000	    0.470000	    1.670000	   10.132813
    8.0956	  0.017000	 -0.176000	  0.985500	   -1.570000	    0.460000	    1.720000	   10.117188
    8.1056	  0.039500	 -0.083500	  0.951000	   -1.800000	    0.440000	    1.760000	   10.121094
    8.1156	  0.154000	 -0.123000	  0.995000	   -2.440000	    1.040000	    1.500000	   10.121094
    8.1256	 -0.002500	 -0.100500	  0.987500	   -1.370000	    1.000000	    1.330000	   10.109375
    8.1358	  0.000500	 -0.117500	  0.993000	   -1.940000	    0.610000	    1.530000	   10.117188
    8.1456	  0.097000	 -0.123000	  0.955000	   -1.230000	    0.460000	    1.720000	   10.113281
    8.1556	  0.004000	 -0.139000	  0.979000	   -2.710000	    1.370000	    1.680000	   10.097656
    8.1656	  0.067500	 -0.084000	  1.086500	   -1.770000	    0.900000	    1.640000	   10.105469
    8.1756	  0.095000	 -0.156000	  1.011000	    0.470000	    1.260000	    1.480000	   10.097656
    8.1856	  0.032000	 -0.139500	  0.981000	   -0.160000	    1.960000	    1.450000	   10.121094
    8.1956	  0.013000	 -0.121000	  0.982000	   -1.940000	    2.500000	    1.560000	   10.113281
    8.2056	  0.011000	 -0.064500	  1.136500	   -0.500000	    1.850000	    1.720000	   10.105469
    8.2158	  0.003000	 -0.135500	  1.121500	   -0.420000	    1.290000	    1.860000	   10.109375
    8.2256	  0.028000	 -0.115500	  1.059500	    1.910000	    0.980000	    1.730000	   10.113281
    8.2356	  0.039500	 -0.154000	  1.067000	    0.680000	    0.850000	    1.600000	   10.113281
    8.2456	  0.052000	 -0.134500	  1.021500	    1.220000	    0.240000	    1.510000	   10.113281
    8.2556	  0.003500	 -0.098000	  1.063500	    1.590000	    0.400000	    1.520000	   10.132813
    8.2656	  0.014500	 -0.126000	  1.088500	    0.270000	   -0.310000	    1.500000	   10.140625
    8.2756	  0.105500	 -0.066000	  1.101500	    2.230000	   -0.550000	    1.440000	   10.105469
    8.2856	  0.017000	 -0.121000	  1.075500	    1.730000	    0.110000	    1.230000	   10.101563
    8.2958	  0.007500	 -0.157000	  1.143000	    1.920000	   -0.630000	    1.120000	   10.128906
    8.3056	  0.037500	 -0.150500	  0.976500	    4.690000	   -1.920000	    1.040000	   10.136719
    8.3156	 -0.006000	 -0.147000	  0.932500	    2.740000	   -1.460000	    1.200000	   10.125000
    8.3256	  0.029500	 -0.127000	  0.863500	    1.900000	   -1.870000	    1.450000	   10.109375
    8.3356	  0.080000	 -0.046500	  0.984500	    1.150000	   -1.990000	    1.120000	   10.109375
    8.3456	  0.032500	 -0.020500	  0.956500	    1.360000	   -2.470000	    0.970000	   10.136719
    8.3556	  0.031500	 -0.099500	  0.979000	    0.250000	   -2.160000	    0.800000	   10.132813
    8.3656	 -0.001500	 -0.131500	  1.010000	   -0.430000	   -2.790000	    0.730000	   10.148438
    8.3758	  0.055000	 -0.201000	  1.008000	    0.650000	   -2.120000	    0.920000	   10.156250
    8.3856	  0.025500	 -0.020000	  1.096500	    0.460000	   -2.080000	    0.940000	   10.148438
    8.3956	  0.036000	 -0.088000	  1.056000	    0.930000	   -2.850000	    0.740000	   10.125000
    8.4056	  0.056500	 -0.089500	  1.064500	    1.640000	   -2.710000	    0.390000	   10.132813
    8.4156	 -0.046000	 -0.119500	  0.876000	    1.910000	   -2.430000	    0.630000	   10.132813
    8.4256	 -0.042500	 -0.068000	  0.965000	   -1.230000	   -2.250000	    0.980000	   10.121094
    8.4356	 -0.028500	 -0.003000	  1.018000	   -1.840000	   -2.320000	    0.930000	   10.128906
    8.4456	 -0.015500	 -0.030500	  1.098500	   -0.610000	   -3.270000	    1.160000	   10.128906
    8.4558	 -0.081000	  0.035000	  1.022500	    0.070000	   -3.360000	    1.460000	   10.121094
    8.4656	  0.107000	 -0.139000	  0.951500	   -1.280000	   -3.260000	    1.590000	   10.128906
    8.4756	  0.053500	 -0.110500	  0.982000	   -2.040000	   -2.910000	    1.320000	   10.121094
    8.4856	 -0.015500	 -0.229000	  1.029500	   -3.510000	   -3.210000	    1.540000	   10.132813
    8.4956	  0.168500	 -0.132000	  0.988500	   -0.870000	   -3.670000	    1.490000	   10.136719
    8.5056	  0.117500	 -0.123500	  0.954500	    0.330000	   -2.630000	    1.340000	   10.109375
    8.5156	 -0.010000	  0.051000	  1.011000	   -1.900000	   -1.000000	    1.340000	   10.117188
    8.5256	  0.013500	 -0.078000	  1.062500	   -2.130000	   -0.420000	    1.940000	   10.125000
    8.5358	  0.057000	 -0.072500	  0.998500	   -0.460000	   -0.740000	    1.960000	   10.128906
    8.5456	  0.061500	 -0.139500	  1.073500	   -2.140000	   -0.640000	    1.990000	   10.125000
    8.5556	  0.174000	 -0.185500	  1.027000	   -0.750000	   -1.130000	    2.120000	   10.125000
    8.5656	  0.205000	 -0.122500	  0.967500	    0.410000	   -1.320000	    1.410000	   10.113281
    8.5756	  0.098500	 -0.029000	  1.008500	   -0.750000	   -0.620000	    0.990000	   10.125000
    8.5856	 -0.001500	  0.030500	  0.960000	   -1.560000	   -0.410000	    1.370000	   10.140625
    8.5960	 -0.018000	 -0.116000	  0.966500	   -1.140000	   -0.760000	    1.810000	   10.121094
    8.6056	  0.116500	 -0.124000	  0.919000	   -2.560000	   -0.920000	    2.140000	   10.132813
    8.6158	  0.197500	 -0.207500	  0.998500	   -3.380000	   -0.130000	    1.700000	   10.109375
    8.6256	  0.097000	 -0.161500	  0.986000	   -1.490000	   -0.810000	    1.220000	   10.101563
    8.6357	  0.138000	 -0.087500	  0.984000	    0.120000	   -0.720000	    0.820000	   10.113281
    8.6456	  0.019000	 -0.067500	  0.877000	   -1.030000	    0.730000	    1.350000	   10.121094
    8.6556	  0.034500	 -0.089500	  0.855500	   -0.660000	    0.830000	    1.530000	   10.121094
    8.6656	  0.061000	 -0.093500	  0.841500	   -0.980000	    1.080000	    1.680000	   10.132813
    8.6756	  0.142000	 -0.145000	  0.938000	   -3.690000	    1.720000	    1.500000	   10.125000
    8.6856	  0.128000	 -0.131000	  0.886500	   -1.540000	    2.090000	    0.930000	   10.105469
    8.6958	  0.051000	 -0.149000	  0.893500	   -0.550000	    1.590000	    0.990000	   10.113281
    8.7056	  0.154500	 -0.157500	  0.835000	   -1.150000	    2.620000	    0.740000	   10.117188
    8.7156	  0.048500	 -0.035500	  0.839500	   -2.180000	    4.330000	    0.540000	   10.128906
    8.7256	  0.007000	 -0.153000	  0.881500	   -3.220000	    4.940000	    1.260000	   10.125000
    8.7356	  0.062000	 -0.104000	  0.979000	   -2.420000	    5.070000	    1.460000	   10.125000
    8.7456	  0.105500	 -0.114000	  0.986500	   -1.380000	    5.430000	    1.280000	   10.140625
    8.7556	  0.001000	 -0.131000	  0.936500	   -1.470000	    5.140000	    0.780000	   10.109375
    8.7656	 -0.052000	 -0.028500	  0.952000	   -0.720000	    4.410000	    1.120000	   10.128906
    8.7758	 -0.032500	 -0.115000	  0.968500	   -2.340000	    3.670000	    1.580000	   10.121094
    8.7856	 -0.017000	 -0.136500	  0.926500	   -1.620000	    2.760000	    1.980000	   10.109375
    8.7956	  0.037000	 -0.142000	  0.918500	   -2.100000	    1.450000	    1.880000	   10.144531
    8.8056	  0.112500	 -0.128000	  0.985500	   -2.140000	    1.050000	    1.410000	   10.128906
    8.8156	  0.121000	 -0.101000	  1.016000	   -2.240000	    2.520000	    1.140000	   10.128906
    8.8256	 -0.019500	 -0.085000	  1.008000	   -1.440000	    2.890000	    1.070000	   10.140625
    8.8356	 -0.028000	 -0.171500	  1.027000	    0.420000	    3.450000	    1.610000	   10.121094
    8.8456	 -0.033500	 -0.064500	  1.034500	   -0.820000	    4.220000	    2.210000	   10.117188
    8.8558	  0.028500	 -0.174500	  1.074500	   -2.100000	    3.340000	    2.310000	   10.105469
    8.8656	 -0.024000	 -0.140000	  1.106500	    1.390000	    1.670000	    1.900000	   10.105469
    8.8756	  0.046000	 -0.152000	  1.027000	    1.100000	    1.110000	    1.980000	   10.105469
    8.8856	  0.056000	 -0.065000	  1.040000	    0.840000	    1.430000	    1.880000	   10.117188
    8.8956	 -0.099500	 -0.096500	  1.038000	    0.230000	    0.910000	    1.990000	   10.097656
    8.9056	  0.028000	 -0.069000	  1.091500	    1.030000	   -0.490000	    2.210000	   10.105469
    8.9156	  0.098000	 -0.173500	  1.054000	    0.580000	   -0.470000	    2.100000	   10.128906
    8.9256	  0.033000	 -0.088500	  1.153500	   -0.560000	   -0.600000	    1.740000	   10.117188
    8.9358	 -0.035000	 -0.067500	  1.251500	    1.310000	   -1.760000	    1.750000	   10.148438
    8.9456	 -0.027000	 -0.090000	  1.214000	    2.510000	   -1.640000	    1.920000	   10.117188
    8.9556	 -0.068000	 -0.056500	  1.237500	    1.310000	   -1.550000	    2.210000	   10.121094
    8.9656	  0.040000	 -0.106000	  1.292000	    2.450000	   -2.470000	    2.380000	   10.156250
    8.9756	  0.044000	 -0.210000	  1.099500	    4.590000	   -2.480000	    2.010000	   10.156250
    8.9856	  0.085000	 -0.190500	  0.918500	    5.690000	   -2.300000	    1.820000	   10.109375
    8.9956	  0.129500	 -0.174500	  0.888000	    3.150000	   -1.900000	    1.330000	   10.097656
    9.0056	 -0.036500	 -0.058500	  0.975500	   -0.060000	   -0.890000	    1.100000	   10.113281
    9.0158	 -0.053500	  0.013500	  1.002500	    1.810000	   -1.920000	    1.540000	   10.113281
    9.0256	  0.116000	 -0.056500	  1.070000	    0.730000	   -2.030000	    1.340000	   10.109375
    9.0356	  0.167500	 -0.175000	  1.066000	    0.640000	   -1.730000	    1.080000	   10.125000
    9.0456	  0.104000	 -0.162500	  1.056500	    2.120000	   -1.920000	    0.660000	   10.148438
    9.0557	  0.097000	 -0.145000	  1.068000	    1.510000	   -2.080000	    0.030000	   10.140625
    9.0656	  0.015500	 -0.072000	  1.102000	    0.910000	   -2.690000	   -0.040000	   10.109375
    9.0756	 -0.069000	 -0.079000	  1.151500	    2.120000	   -3.200000	    0.270000	   10.089844
    9.0856	  0.028500	 -0.063500	  1.073000	    2.550000	   -3.200000	    0.590000	   10.113281
    9.0958	  0.154000	 -0.131000	  0.996500	    2.770000	   -2.550000	    0.390000	   10.128906
    9.1056	  0.059500	 -0.173000	  0.952500	    2.630000	   -1.690000	   -0.060000	   10.121094
    9.1156	  0.035000	 -0.118000	  0.896500	    2.350000	   -2.040000	   -0.100000	   10.113281
    9.1256	  0.016500	 -0.041000	  0.939500	    2.370000	   -2.500000	   -0.120000	   10.113281
    9.1356	 -0.014000	 -0.044000	  0.916500	    1.210000	   -1.870000	    0.590000	   10.121094
    9.1456	  0.074500	 -0.087500	  0.889000	    0.500000	   -2.340000	    0.420000	   10.136719
    9.1556	  0.119500	 -0.112500	  0.931500	    0.930000	   -1.660000	    0.170000	   10.101563
    9.1656	  0.013500	 -0.130000	  0.864500	    2.160000	   -0.980000	    0.440000	   10.121094
    9.1758	  0.028000	 -0.039000	  0.879500	    0.390000	   -0.470000	    0.490000	   10.125000
    9.1856	  0.032000	 -0.137000	  0.873000	    0.600000	    0.470000	    0.810000	   10.097656
    9.1956	 -0.068000	 -0.088500	  0.813500	    0.990000	    1.120000	    1.180000	   10.113281
    9.2056	  0.072500	 -0.052500	  0.884500	   -0.700000	    1.610000	    1.490000	   10.117188
    9.2156	  0.120000	 -0.108500	  0.787500	   -0.330000	    2.300000	    1.290000	   10.109375
    9.2256	  0.061000	 -0.157500	  0.843500	    0.060000	    2.440000	    1.120000	   10.109375
    9.2356	  0.031500	 -0.053000	  0.921000	   -2.750000	    3.030000	    1.310000	   10.117188
    9.2456	  0.026000	 -0.032000	  0.957000	   -1.850000	    2.370000	    1.700000	   10.101563
    9.2558	 -0.088500	  0.012500	  1.109500	   -1.180000	    2.220000	    1.990000	   10.097656
    9.2656	  0.064500	 -0.190500	  1.031000	   -0.100000	    1.580000	    2.380000	   10.136719
    9.2756	  0.095500	 -0.153500	  0.906000	    1.590000	    1.880000	    2.120000	   10.136719
    9.2856	  0.073500	 -0.114000	  0.834000	    1.000000	    1.400000	    2.100000	   10.132813
    9.2956	  0.038500	 -0.097000	  0.857500	   -0.850000	    1.770000	    1.700000	   10.125000
    9.3056	  0.135500	 -0.038500	  0.887000	   -1.820000	    1.180000	    1.650000	   10.117188
    9.3156	  0.110500	 -0.138000	  0.794000	   -0.250000	    1.320000	    1.440000	   10.132813
    9.3256	  0.142000	 -0.132000	  0.767000	   -0.300000	    1.860000	    1.380000	   10.144531
    9.3358	  0.154500	 -0.085500	  0.849000	   -3.190000	    3.250000	    1.120000	   10.148438
    9.3456	 -0.002500	 -0.043500	  0.959500	   -4.290000	    3.360000	    1.050000	   10.136719
    9.3556	  0.006500	 -0.120000	  1.062000	   -3.440000	    2.290000	    1.080000	   10.128906
    9.3656	  0.084000	 -0.143000	  1.023000	   -0.590000	    1.630000	    1.060000	   10.128906
    9.3756	  0.051500	 -0.055000	  0.981000	   -1.520000	    1.860000	    1.000000	   10.128906
    9.3856	 -0.001000	 -0.110000	  1.030500	   -2.740000	    2.280000	    1.040000	   10.117188
    9.3956	  0.049500	 -0.134000	  1.085000	   -2.230000	    1.600000	    0.930000	   10.117188
    9.4056	  0.015500	 -0.085500	  1.085000	   -0.350000	    1.290000	    0.920000	   10.128906
    9.4158	 -0.013000	 -0.139500	  0.957000	   -0.450000	    1.330000	    0.990000	   10.144531
    9.4256	  0.042000	 -0.102000	  1.025500	   -1.400000	    1.390000	    0.920000	   10.148438
    9.4356	  0.000000	 -0.110500	  1.032500	   -1.880000	    1.480000	    1.080000	   10.128906
    9.4457	  0.008000	 -0.046500	  1.111500	   -1.370000	    1.150000	    1.080000	   10.121094
    9.4556	 -0.035500	 -0.101000	  1.093500	   -0.400000	    1.060000	    1.190000	   10.136719
    9.4656	  0.057000	 -0.147500	  1.069500	   -0.860000	    1.170000	    1.060000	   10.097656
    9.4756	 -0.095500	 -0.099000	  1.041500	   -0.620000	    1.050000	    1.180000	   10.109375
    9.4856	 -0.026000	 -0.109500	  1.098500	   -0.290000	   -0.340000	    1.660000	   10.113281
    9.4958	  0.031500	 -0.093000	  1.061500	   -0.460000	   -0.470000	    1.530000	   10.113281
    9.5056	 -0.004000	 -0.115000	  1.068000	   -1.000000	   -0.010000	    1.700000	   10.117188
    9.5156	 -0.029000	 -0.067000	  1.086500	   -0.070000	   -0.320000	    1.540000	   10.117188
    9.5256	  0.016000	 -0.107500	  1.125000	    0.200000	   -0.520000	    1.610000	   10.125000
    9.5356	  0.019000	 -0.135500	  1.028000	    1.150000	   -0.460000	    1.750000	   10.140625
    9.5456	 -0.057500	 -0.091500	  1.036500	   -0.360000	    0.080000	    1.990000	   10.117188
    9.5556	  0.026500	 -0.118000	  1.017000	    0.690000	   -0.760000	    1.990000	   10.113281
    9.5656	  0.006000	 -0.046500	  1.082500	   -0.740000	   -0.160000	    1.720000	   10.132813
    9.5758	  0.012000	 -0.140500	  1.086000	    0.130000	   -1.180000	    1.560000	   10.148438
    9.5856	  0.049000	 -0.031500	  1.073500	    0.330000	   -1.690000	    1.690000	   10.136719
    9.5960	  0.077000	 -0.151500	  0.963000	    1.080000	   -1.490000	    1.560000	   10.148438
    9.6056	  0.060500	 -0.125500	  1.044000	   -0.250000	   -0.860000	    1.390000	   10.148438
    9.6156	  0.090000	 -0.104500	  0.956500	    1.060000	   -0.990000	    1.280000	   10.144531
    9.6256	  0.012500	 -0.132500	  0.963500	    0.310000	   -1.490000	    1.080000	   10.148438
    9.6356	  0.075000	 -0.045500	  0.988500	    0.190000	   -1.780000	    1.170000	   10.132813
    9.6456	  0.054500	 -0.066500	  0.939500	    0.150000	   -1.960000	    1.090000	   10.128906
    9.6559	  0.113000	 -0.102000	  1.036000	   -0.740000	   -1.880000	    0.930000	   10.101563
    9.6656	  0.127500	 -0.099000	  0.954000	   -0.010000	   -1.790000	    0.440000	   10.097656
    9.6757	 -0.002500	 -0.070500	  1.005000	    1.050000	   -1.830000	    0.540000	   10.117188
    9.6856	  0.052500	 -0.088500	  0.903500	   -0.670000	   -1.570000	    0.830000	   10.144531
    9.6956	  0.095500	 -0.081500	  0.924500	   -0.920000	   -1.360000	    0.860000	   10.144531
    9.7056	  0.097500	 -0.109500	  0.944500	   -1.330000	   -0.910000	    0.620000	   10.128906
    9.7156	 -0.060000	 -0.015000	  1.015500	   -1.060000	   -1.390000	    0.840000	   10.125000
    9.7256	  0.090000	 -0.123500	  1.024000	   -0.540000	   -2.310000	    0.710000	   10.136719
    9.7359	  0.087000	 -0.099500	  0.922000	   -0.210000	   -2.010000	    0.450000	   10.121094
    9.7456	 -0.034000	 -0.078500	  0.956500	   -1.540000	   -1.470000	    0.690000	   10.140625
    9.7557	 -0.024000	 -0.099500	  1.003500	   -0.760000	   -1.950000	    1.060000	   10.125000
    9.7656	  0.090000	 -0.106500	  0.955000	   -0.240000	   -1.770000	    1.070000	   10.128906
    9.7756	  0.022500	 -0.076500	  0.872500	   -0.610000	   -1.230000	    0.700000	   10.148438
    9.7856	 -0.011500	 -0.103500	  0.966500	   -2.380000	   -0.680000	    1.080000	   10.128906
    9.7956	  0.052500	 -0.101500	  0.927500	   -0.930000	   -0.630000	    1.040000	   10.136719
    9.8056	  0.087000	 -0.085000	  0.922000	   -0.630000	   -0.220000	    1.050000	   10.140625
    9.8158	  0.036500	 -0.106500	  0.961000	   -2.150000	    0.550000	    1.080000	   10.140625
    9.8256	 -0.008000	 -0.074500	  0.933500	   -1.620000	    0.600000	    1.150000	   10.128906
    9.8356	  0.072500	 -0.069500	  1.017000	   -1.230000	    0.450000	    1.230000	   10.125000
    9.8457	  0.043000	 -0.109000	  0.956000	   -2.140000	    1.100000	    1.120000	   10.132813
    9.8556	  0.013000	 -0.098500	  1.029500	   -1.930000	    0.740000	    1.220000	   10.125000
    9.8656	  0.051000	 -0.106000	  1.012500	   -0.640000	    0.550000	    1.480000	   10.132813
    9.8756	  0.026500	 -0.078500	  0.994000	   -1.190000	    0.800000	    1.430000	   10.121094
    9.8856	  0.039000	 -0.120000	  1.030500	   -1.480000	    0.690000	    1.420000	   10.128906
    9.8958	  0.037500	 -0.119000	  1.017000	   -1.200000	    1.020000	    1.600000	   10.125000
    9.9056	  0.043000	 -0.058000	  1.043500	    0.130000	    0.900000	    1.540000	   10.125000
    9.9156	  0.038000	 -0.119500	  1.055000	   -0.560000	    0.940000	    1.520000	   10.128906
    9.9256	  0.093000	 -0.131500	  1.041500	   -0.150000	    0.540000	    1.390000	   10.117188
    9.9356	  0.040000	 -0.090500	  0.994500	    1.540000	    0.260000	    1.630000	   10.148438
    9.9457	  0.050000	 -0.083500	  1.022500	    0.740000	    1.020000	    1.420000	   10.132813
    9.9556	  0.094000	 -0.148000	  0.953000	    0.020000	    1.520000	    1.400000	   10.125000
    9.9656	 -0.004500	 -0.098500	  1.016000	    0.760000	    1.860000	    1.370000	   10.117188
    9.9758	  0.019500	 -0.099000	  1.024500	    0.840000	    1.160000	    1.660000	   10.125000
    9.9856	  0.109500	 -0.061500	  1.048500	    0.870000	    1.080000	    1.640000	   10.097656
    9.9956	  0.061500	 -0.104500	  1.048500	    1.030000	    1.370000	    1.270000	   10.097656
   10.0056	  0.008000	 -0.129000	  1.048000	    1.620000	    1.050000	    1.230000	   10.140625
   10.0156	  0.021500	 -0.059500	  1.056000	    2.280000	    0.880000	    1.480000	   10.125000
   10.0256	  0.029500	 -0.076000	  0.997500	    1.250000	    0.860000	    1.680000	   10.121094
   10.0356	  0.015000	 -0.101500	  1.031000	    1.520000	    0.380000	    1.560000	   10.117188
   10.0456	  0.063500	 -0.144000	  0.981000	    2.220000	    0.260000	    1.450000	   10.144531
   10.0559	  0.048500	 -0.064500	  0.932000	    2.130000	    0.180000	    1.290000	   10.148438
   10.0656	  0.015500	 -0.120500	  0.918000	    0.630000	    1.080000	    1.220000	   10.128906
   10.0756	  0.029500	 -0.092000	  1.005000	    0.670000	    0.690000	    1.490000	   10.109375
   10.0856	  0.032500	 -0.056500	  1.036000	    1.280000	    0.600000	    1.500000	   10.105469
   10.0956	  0.068000	 -0.050000	  1.035000	    1.490000	    0.260000	    1.650000	   10.140625
   10.1056	  0.044000	 -0.125000	  1.002000	    1.360000	    0.440000	    1.220000	   10.136719
   10.1156	  0.108000	 -0.059000	  1.071000	    1.110000	    0.580000	    1.100000	   10.125000
   10.1256	  0.013000	 -0.085000	  1.015000	    1.910000	    0.690000	    1.140000	   10.128906
   10.1358	 -0.024500	 -0.097500	  1.001500	    1.720000	    0.460000	    1.270000	   10.113281
   10.1457	  0.092000	 -0.100000	  0.969000	    1.210000	    0.280000	    1.220000	   10.109375
   10.1556	  0.042000	 -0.066000	  0.942500	    1.150000	    0.520000	    1.330000	   10.117188
   10.1656	 -0.051500	 -0.068500	  1.030000	    0.230000	    0.320000	    1.600000	   10.132813
   10.1756	  0.052500	 -0.084500	  1.033000	    0.390000	   -0.650000	    1.120000	   10.109375
   10.1856	  0.020500	 -0.039000	  0.964000	    2.200000	   -0.650000	    1.280000	   10.144531
   10.1956	  0.005500	 -0.112500	  1.001000	    0.200000	    0.060000	    1.500000	   10.164063
   10.2056	  0.011500	 -0.063000	  1.012000	   -0.080000	   -0.620000	    1.440000	   10.132813
   10.2158	  0.075500	 -0.134000	  0.975500	    2.170000	   -0.830000	    1.210000	   10.132813
   10.2256	 -0.030000	 -0.042500	  0.945500	    0.690000	   -0.460000	    1.390000	   10.148438
   10.2356	  0.024000	 -0.096500	  0.966500	   -0.030000	    0.080000	    1.460000	   10.148438
   10.2457	  0.052500	 -0.059000	  1.012500	    0.300000	   -0.330000	    1.400000	   10.136719
   10.2556	  0.013000	 -0.077000	  0.975000	    0.510000	   -0.080000	    1.410000	   10.117188
   10.2656	  0.025000	 -0.079000	  1.049000	   -0.010000	   -0.020000	    1.370000	   10.132813
   10.2756	  0.026500	 -0.145500	  0.967500	    1.220000	   -1.080000	    1.460000	   10.125000
   10.2856	  0.094000	 -0.031500	  0.987500	    1.310000	   -0.630000	    1.240000	   10.125000
   10.2959	 -0.014500	 -0.067000	  0.974000	   -0.290000	   -0.650000	    1.230000	   10.132813
   10.3056	  0.022000	 -0.094000	  1.009500	    0.570000	   -1.160000	    1.350000	   10.125000
   10.3156	  0.062000	 -0.110000	  0.923000	    1.600000	   -1.280000	    1.240000	   10.125000
   10.3256	  0.036000	 -0.097500	  0.899000	    0.700000	   -1.160000	    1.330000	   10.132813
   10.3356	  0.041500	 -0.068500	  0.919000	   -0.490000	   -0.930000	    1.030000	   10.140625
   10.3457	  0.090500	 -0.053500	  0.956500	    0.460000	   -0.990000	    1.120000	   10.125000
   10.3557	  0.043000	 -0.106500	  0.896000	    0.620000	    0.240000	    1.250000	   10.121094
   10.3657	  0.112500	 -0.099500	  0.917000	   -0.080000	    0.920000	    1.080000	   10.117188
   10.3759	  0.055500	 -0.036000	  0.910500	   -0.330000	    1.790000	    1.100000	   10.136719
   10.3857	 -0.008000	 -0.062500	  0.989000	   -0.670000	    1.560000	    1.260000	   10.132813
   10.3956	  0.078500	 -0.043000	  0.990500	   -0.610000	    1.020000	    1.300000	   10.125000
   10.4057	  0.088000	 -0.113000	  0.867000	    0.700000	    0.870000	    1.260000	   10.132813
   10.4157	  0.046000	 -0.069000	  0.922500	   -1.850000	    1.140000	    1.200000	   10.117188
   10.4256	  0.049500	 -0.079500	  0.933000	   -2.220000	    0.720000	    1.090000	   10.101563
   10.4357	 -0.006500	 -0.032500	  1.033000	   -2.590000	    0.710000	    1.130000	   10.128906
   10.4457	  0.058500	 -0.062000	  1.041500	   -1.640000	    0.400000	    1.340000	   10.156250
   10.4559	  0.072500	 -0.042000	  1.011000	   -0.710000	    0.810000	    1.440000	   10.132813
   10.4657	  0.034500	 -0.117000	  1.005500	   -1.300000	    1.370000	    1.340000	   10.121094
   10.4757	  0.041000	 -0.102000	  0.930000	   -1.800000	    1.490000	    1.290000	   10.136719
   10.4857	  0.097500	 -0.095000	  0.936500	   -1.930000	    1.170000	    0.930000	   10.125000
   10.4957	 -0.062500	 -0.066000	  0.934000	   -2.240000	    1.080000	    1.300000	   10.128906
   10.5057	  0.002500	 -0.048000	  1.005500	   -2.940000	    0.710000	    1.590000	   10.113281
   10.5157	  0.142500	 -0.057000	  0.928500	   -2.390000	    0.070000	    1.380000	   10.117188
   10.5257	  0.023000	 -0.110500	  1.019000	   -3.180000	    0.820000	    1.220000	   10.121094
   10.5359	 -0.018500	 -0.093000	  1.040500	   -2.910000	   -0.230000	    1.210000	   10.117188
   10.5457	  0.110000	 -0.071500	  1.102500	   -2.630000	   -0.210000	    1.100000	   10.121094
   10.5557	 -0.004000	 -0.069500	  1.032500	   -1.970000	   -0.210000	    0.920000	   10.132813
   10.5657	 -0.037500	 -0.089500	  1.079000	   -2.060000	   -0.560000	    1.360000	   10.117188
   10.5757	  0.090500	 -0.142000	  0.988500	   -1.090000	   -0.910000	    1.340000	   10.125000
   10.5857	  0.023500	 -0.050500	  0.978500	   -2.210000	   -0.640000	    1.050000	   10.125000
   10.5961	 -0.047000	 -0.076000	  1.054000	   -2.920000	   -0.360000	    0.930000	   10.132813
   10.6057	 -0.029500	 -0.096000	  1.044000	   -2.030000	   -0.380000	    1.370000	   10.136719
   10.6159	  0.056500	 -0.101500	  1.061500	   -1.190000	   -0.320000	    1.200000	   10.117188
   10.6257	 -0.037500	 -0.078500	  1.004000	   -1.280000	   -0.070000	    1.270000	   10.121094
   10.6357	 -0.042500	 -0.139500	  0.985500	   -1.200000	   -0.050000	    1.430000	   10.136719
   10.6457	  0.084000	 -0.083500	  1.032000	   -1.870000	   -0.500000	    1.160000	   10.144531
   10.6557	  0.023500	 -0.077500	  1.036000	   -1.070000	    0.030000	    1.010000	   10.128906
   10.6657	 -0.048500	 -0.089000	  1.031500	   -0.200000	   -0.010000	    1.200000	   10.121094
   10.6757	  0.062000	 -0.088500	  0.995000	   -0.760000	   -0.310000	    1.200000	   10.121094
   10.6857	  0.063500	 -0.128500	  0.953500	   -0.620000	    0.370000	    1.190000	   10.121094
   10.6959	 -0.013000	 -0.096500	  1.045500	   -1.910000	    0.730000	    1.250000	   10.136719
   10.7057	  0.013500	 -0.085000	  1.065000	   -0.510000	   -0.150000	    1.030000	   10.117188
   10.7157	  0.040500	 -0.072000	  1.016000	    0.880000	   -0.220000	    1.250000	   10.117188
   10.7257	  0.025500	 -0.114500	  0.951500	    0.330000	    0.420000	    1.230000	   10.140625
   10.7357	  0.036000	 -0.090500	  0.985500	   -1.670000	    0.310000	    1.160000	   10.136719
   10.7457	  0.073000	 -0.105000	  0.984000	    0.630000	    0.230000	    0.960000	   10.121094
   10.7557	  0.040500	 -0.081500	  0.958000	    0.240000	    0.680000	    1.150000	   10.132813
   10.7657	  0.084000	 -0.073500	  0.952500	   -0.580000	    1.280000	    0.990000	   10.140625
   10.7759	  0.092500	 -0.055500	  0.911000	    0.010000	    1.690000	    0.860000	   10.140625
   10.7857	  0.109000	 -0.142500	  0.929000	   -0.540000	    1.780000	    0.820000	   10.125000
   10.7957	  0.106500	 -0.047000	  0.959500	   -2.710000	    2.660000	    0.480000	   10.113281
   10.8057	  0.014500	 -0.084500	  1.021000	   -1.750000	    2.810000	    0.580000	   10.117188
   10.8158	  0.012000	 -0.051500	  1.186000	   -1.900000	    2.550000	    0.660000	   10.121094
   10.8257	  0.029500	 -0.134000	  1.034500	    1.730000	    1.210000	    0.590000	   10.156250
   10.8357	  0.041500	 -0.111000	  1.011000	    1.630000	    1.100000	    0.600000	   10.156250
   10.8457	  0.028000	 -0.083500	  0.968500	    0.390000	    1.200000	    0.580000	   10.136719
   10.8559	  0.052000	 -0.077000	  0.994500	   -0.160000	    1.570000	    0.580000	   10.121094
   10.8657	 -0.008500	 -0.081000	  1.100000	   -0.700000	    1.610000	    0.620000	   10.132813
   10.8757	  0.024000	 -0.063500	  1.019000	    0.930000	    0.760000	    0.640000	   10.148438
   10.8857	  0.083000	 -0.067000	  1.071000	    0.760000	    0.850000	    0.410000	   10.128906
   10.8957	  0.009000	 -0.127500	  1.057500	    0.260000	    0.800000	    0.250000	   10.109375
   10.9057	  0.000500	 -0.122000	  1.059000	    0.990000	    0.230000	    0.220000	   10.117188
   10.9157	  0.044500	 -0.069000	  1.014000	    2.080000	   -0.480000	    0.370000	   10.144531
   10.9257	  0.011500	 -0.097500	  0.963000	    1.080000	    0.010000	    0.180000	   10.117188
   10.9359	 -0.031000	 -0.044000	  1.052000	    0.770000	   -0.430000	    0.150000	   10.144531
   10.9457	 -0.030500	 -0.090500	  0.978500	    0.770000	   -1.370000	    0.250000	   10.140625
   10.9557	  0.041500	 -0.081500	  1.022500	    1.560000	   -1.860000	    0.030000	   10.140625
   10.9657	 -0.062500	 -0.073500	  1.022500	    0.160000	   -1.520000	   -0.020000	   10.148438
   10.9757	 -0.010000	 -0.078500	  1.078000	    0.760000	   -2.100000	    0.030000	   10.140625
   10.9857	 -0.001000	 -0.088500	  1.025000	    1.880000	   -2.310000	    0.050000	   10.121094
   10.9957	 -0.043000	 -0.110000	  1.016000	    1.310000	   -1.490000	    0.110000	   10.132813
   11.0057	 -0.013500	 -0.064000	  0.971000	    1.780000	   -2.280000	    0.110000	   10.117188
   11.0159	 -0.002000	 -0.047000	  0.998000	    0.670000	   -1.460000	    0.090000	   10.136719
   11.0257	 -0.032000	 -0.083500	  0.974500	    1.190000	   -1.700000	   -0.010000	   10.160156
   11.0357	 -0.018500	 -0.083000	  1.010500	    1.480000	   -1.860000	    0.240000	   10.156250
   11.0457	  0.044000	 -0.132500	  0.929500	    1.380000	   -1.730000	    0.250000	   10.140625
   11.0557	  0.007500	 -0.063000	  0.914500	    1.330000	   -1.440000	    0.110000	   10.136719
   11.0657	 -0.002500	 -0.043000	  1.017500	    0.460000	   -1.360000	   -0.020000	   10.128906
   11.0757	  0.004000	 -0.060500	  0.947000	    0.490000	   -1.100000	    0.170000	   10.152344
   11.0857	  0.029500	 -0.072000	  0.977500	    1.470000	   -0.830000	    0.300000	   10.128906
   11.0959	  0.010500	 -0.123500	  0.911000	    0.230000	   -0.800000	    0.320000	   10.101563
   11.1057	  0.105500	 -0.106000	  0.962000	    0.340000	   -1.220000	   -0.150000	   10.113281
   11.1157	  0.046500	 -0.028500	  0.973000	    0.560000	   -0.510000	   -0.230000	   10.117188
   11.1257	  0.015000	 -0.079000	  0.938500	    0.680000	   -0.410000	   -0.080000	   10.117188
   11.1357	 -0.010000	 -0.055000	  0.960000	    0.590000	   -0.360000	   -0.050000	   10.121094
   11.1457	  0.065000	 -0.098000	  0.894000	   -0.100000	   -0.120000	    0.330000	   10.117188
   11.1557	  0.050000	 -0.062000	  0.940000	   -0.790000	   -0.580000	    0.050000	   10.105469
   11.1657	  0.076500	 -0.056000	  1.023500	   -1.210000	   -0.280000	    0.020000	   10.113281
   11.1759	  0.104500	 -0.087500	  1.014500	   -0.050000	   -0.700000	   -0.280000	   10.121094
   11.1857	  0.029000	 -0.016000	  0.962000	    0.780000	    0.290000	   -0.010000	   10.121094
   11.1957	  0.050500	 -0.083500	  0.987000	   -1.200000	    0.490000	   -0.200000	   10.144531
   11.2057	  0.037000	 -0.086000	  0.954500	   -0.240000	    0.160000	   -0.190000	   10.132813
   11.2157	  0.062500	 -0.103000	  0.932000	   -0.670000	    0.200000	   -0.030000	   10.121094
   11.2257	  0.021000	 -0.051000	  0.928000	   -0.640000	    0.300000	   -0.100000	   10.117188
   11.2357	  0.037000	 -0.067500	  0.960500	   -1.910000	    1.010000	    0.130000	   10.117188
   11.2457	  0.030500	 -0.034000	  0.961000	   -1.570000	    1.270000	    0.110000	   10.140625
   11.2559	  0.018000	 -0.066000	  0.960000	   -1.430000	    1.360000	    0.280000	   10.144531
   11.2657	  0.021000	 -0.108500	  0.990000	   -1.540000	    1.400000	    0.320000	   10.132813
   11.2757	  0.030000	 -0.080500	  0.922500	   -1.710000	    1.910000	    0.380000	   10.117188
   11.2857	  0.029500	 -0.069500	  0.996500	   -2.090000	    2.180000	    0.480000	   10.136719
   11.2957	 -0.032500	 -0.062000	  0.995500	   -2.220000	    2.330000	    0.690000	   10.152344
   11.3057	  0.041000	 -0.088000	  1.040500	   -1.490000	    1.850000	    0.660000	   10.125000
   11.3157	  0.022500	 -0.079500	  0.986000	   -1.410000	    1.770000	    0.660000	   10.132813
   11.3257	 -0.009000	 -0.129000	  0.990000	   -1.480000	    1.690000	    0.650000	   10.136719
   11.3359	 -0.010000	 -0.064000	  1.046500	   -1.290000	    1.230000	    0.800000	   10.097656
   11.3457	  0.004500	 -0.054500	  1.030000	   -1.070000	    0.920000	    0.690000	   10.105469
   11.3557	 -0.010500	 -0.081500	  1.058000	   -0.420000	    0.590000	    0.840000	   10.117188
   11.3657	  0.023000	 -0.117500	  1.006000	   -0.590000	    0.480000	    0.860000	   10.085938
   11.3757	  0.016000	 -0.088500	  1.004500	   -0.300000	    0.040000	    0.820000	   10.117188
   11.3857	  0.000500	 -0.075500	  1.034000	   -0.390000	   -0.250000	    0.660000	   10.125000
   11.3957	  0.003500	 -0.090000	  1.031000	   -0.080000	   -0.790000	    0.640000	   10.117188
   11.4057	  0.063000	 -0.126000	  0.996000	    0.590000	   -0.770000	    0.630000	   10.117188
   11.4159	  0.055000	 -0.097000	  0.952000	    0.630000	   -0.560000	    0.350000	   10.101563
   11.4257	  0.009500	 -0.065000	  1.007000	    0.350000	    0.000000	    0.190000	   10.121094
   11.4357	  0.033000	 -0.067500	  0.995000	    0.320000	    0.100000	    0.340000	   10.136719
   11.4457	  0.013500	 -0.104000	  0.972000	    1.300000	    0.270000	    0.240000	   10.125000
   11.4557	  0.023000	 -0.070500	  0.957500	    0.840000	    0.430000	    0.310000	   10.113281
   11.4657	 -0.024500	 -0.043500	  0.964000	   -0.490000	   -0.140000	    0.130000	   10.105469
   11.4757	  0.001000	 -0.069500	  1.041500	   -0.450000	   -0.610000	    0.180000	   10.109375
   11.4857	  0.025500	 -0.103500	  0.962500	    0.470000	   -1.330000	    0.280000	   10.121094
   11.4959	  0.053000	 -0.094500	  0.988500	    0.360000	   -1.220000	    0.010000	   10.128906
   11.5057	  0.024500	 -0.078500	  0.907000	   -0.260000	   -0.600000	   -0.130000	   10.136719
   11.5157	 -0.009000	 -0.047500	  0.999500	   -1.000000	   -0.370000	   -0.010000	   10.140625
   11.5257	  0.004000	 -0.095500	  1.048500	   -1.480000	   -0.460000	   -0.010000	   10.128906
   11.5357	 -0.005500	 -0.029500	  1.004500	    0.230000	   -0.520000	    0.210000	   10.125000
   11.5457	  0.036000	 -0.095500	  0.959500	   -0.070000	   -0.580000	    0.290000	   10.121094
   11.5557	  0.039500	 -0.110000	  1.035000	   -2.000000	    0.070000	   -0.130000	   10.125000
   11.5657	  0.046500	 -0.091000	  1.041000	   -0.640000	   -0.730000	    0.000000	   10.148438
   11.5759	 -0.033500	 -0.050000	  1.029500	   -0.060000	   -1.010000	   -0.050000	   10.156250
   11.5857	  0.018500	 -0.047500	  1.052000	   -0.890000	   -1.200000	    0.170000	   10.144531
   11.5961	  0.027500	 -0.092500	  1.030000	   -1.110000	   -1.130000	    0.230000	   10.136719
   11.6057	  0.029500	 -0.085500	  1.085500	   -0.430000	   -1.410000	    0.150000	   10.128906
   11.6157	  0.012000	 -0.084500	  1.034000	    0.060000	   -2.080000	   -0.100000	   10.121094
   11.6257	  0.028000	 -0.080000	  1.046500	    0.110000	   -2.140000	   -0.010000	   10.136719
   11.6357	  0.008000	 -0.057000	  1.049500	   -0.790000	   -2.140000	    0.170000	   10.148438
   11.6457	  0.057000	 -0.111500	  1.043000	    0.290000	   -2.180000	    0.120000	   10.121094
   11.6560	  0.063500	 -0.078500	  1.030000	    0.670000	   -1.580000	   -0.140000	   10.140625
   11.6657	  0.053000	 -0.055500	  1.037000	   -0.040000	   -0.830000	   -0.250000	   10.148438
   11.6757	  0.011500	 -0.067000	  1.068500	    0.030000	   -0.480000	   -0.180000	   10.121094
   11.6857	  0.033000	 -0.137000	  1.019000	    1.680000	   -0.430000	    0.020000	   10.140625
   11.6957	  0.041500	 -0.037500	  0.956500	    1.290000	    0.270000	    0.020000	   10.140625
   11.7057	  0.033500	 -0.067500	  0.931000	    0.390000	   -0.020000	   -0.060000	   10.136719
   11.7157	 -0.002000	 -0.052500	  0.936000	    0.070000	    0.310000	    0.010000	   10.113281
   11.7257	  0.039500	 -0.082500	  0.954000	   -0.910000	    0.010000	    0.100000	   10.121094
   11.7359	  0.045500	 -0.046000	  0.911500	   -0.570000	    0.070000	   -0.230000	   10.121094
   11.7457	  0.008500	 -0.078000	  0.967500	   -0.930000	    0.320000	   -0.030000	   10.121094
   11.7557	  0.002500	 -0.078000	  0.966000	   -1.720000	    0.730000	    0.170000	   10.144531
   11.7657	  0.050000	 -0.078500	  0.980000	   -0.750000	    0.240000	    0.160000	   10.144531
   11.7757	 -0.002500	 -0.047500	  0.920500	   -0.360000	    0.380000	    0.210000	   10.125000
   11.7857	  0.012500	 -0.073000	  0.925500	   -2.100000	    0.790000	    0.520000	   10.125000
   11.7957	  0.035500	 -0.094500	  0.894000	   -0.980000	    0.690000	    0.390000	   10.113281
   11.8057	  0.063000	 -0.090000	  0.890000	   -1.450000	    0.790000	    0.310000	   10.132813
   11.8159	  0.017500	 -0.043500	  0.838500	   -1.830000	    0.590000	    0.080000	   10.125000
   11.8257	  0.024000	 -0.002000	  0.976500	   -3.940000	    0.950000	    0.370000	   10.128906
   11.8357	  0.052000	 -0.062500	  0.987500	   -4.040000	    0.600000	    0.250000	   10.160156
   11.8457	  0.020000	 -0.089500	  1.060500	   -2.350000	    0.240000	    0.350000	   10.132813
   11.8557	 -0.025000	 -0.110000	  1.039000	   -2.700000	   -0.220000	    0.320000	   10.144531
   11.8657	  0.006000	 -0.039500	  1.111000	   -2.230000	   -0.820000	    0.220000	   10.144531
   11.8757	 -0.017000	 -0.092000	  1.027500	   -1.050000	   -0.320000	    0.300000	   10.125000
   11.8857	 -0.083000	 -0.041500	  1.057500	   -1.570000	   -0.530000	    0.610000	   10.125000
   11.8959	  0.032000	 -0.084500	  0.974000	   -0.490000	   -1.070000	    0.920000	   10.140625
   11.9057	  0.050000	 -0.108500	  0.994000	   -1.970000	   -0.050000	    0.860000	   10.148438
   11.9157	  0.031500	 -0.118500	  0.999500	   -1.420000	   -0.550000	    0.490000	   10.136719
   11.9257	  0.034000	 -0.063500	  1.054000	   -1.200000	   -0.320000	    0.320000	   10.121094
   11.9357	  0.070000	 -0.097500	  1.038500	   -0.380000	    0.000000	    0.310000	   10.117188
   11.9458	 -0.058000	 -0.074500	  1.022500	   -0.180000	    0.870000	    0.730000	   10.140625
   11.9557	  0.055000	 -0.103000	  1.022000	    0.130000	    0.060000	    0.790000	   10.132813
   11.9658	  0.077500	 -0.049500	  0.997000	   -0.140000	    0.160000	    0.460000	   10.117188
   11.9759	  0.050500	 -0.126000	  1.048500	   -0.120000	    0.540000	    0.230000	   10.125000
   11.9857	  0.028500	 -0.093000	  1.004000	    0.730000	    0.370000	    0.160000	   10.117188
   11.9957	  0.033500	 -0.036000	  1.036500	    1.790000	    0.550000	    0.320000	   10.132813
   12.0057	 -0.039500	 -0.120500	  1.000500	    0.350000	    0.900000	    0.580000	   10.128906
   12.0157	  0.007500	 -0.065000	  1.066500	    0.360000	   -0.040000	    0.660000	   10.148438
   12.0257	  0.056500	 -0.082000	  0.973000	    2.550000	   -1.060000	    0.590000	   10.125000
   12.0357	  0.033000	 -0.072500	  0.942500	    2.240000	   -0.300000	    0.480000	   10.121094
   12.0457	  0.044500	 -0.097000	  0.934500	   -0.620000	    0.300000	    0.470000	   10.136719
   12.0560	  0.007500	 -0.051000	  1.027500	    0.170000	   -0.090000	    0.340000	   10.121094
   12.0657	  0.078000	 -0.041500	  0.984500	    2.460000	   -0.800000	    0.420000	   10.113281
   12.0757	  0.021000	 -0.081000	  1.005000	   -0.040000	   -0.320000	    0.460000	   10.117188
   12.0857	  0.063000	 -0.097500	  1.021000	   -0.100000	   -0.700000	    0.160000	   10.144531
   12.0957	  0.004000	 -0.042500	  1.046000	    1.580000	   -0.910000	    0.220000	   10.128906
   12.1057	  0.036000	 -0.033000	  1.085500	    0.610000	   -0.210000	    0.200000	   10.121094
   12.1157	 -0.004500	 -0.116000	  1.031500	    1.130000	   -0.410000	    0.040000	   10.121094
   12.1257	 -0.021500	 -0.023500	  1.015500	    2.090000	   -0.590000	    0.150000	   10.128906
   12.1359	  0.022500	 -0.081000	  0.960000	    1.130000	   -0.820000	    0.460000	   10.121094
   12.1458	  0.085000	 -0.090500	  1.027500	   -0.350000	   -0.450000	    0.240000	   10.101563
   12.1557	  0.051500	 -0.048000	  1.003000	    0.920000	   -0.640000	   -0.270000	   10.128906
   12.1657	  0.021500	 -0.077000	  1.066000	    1.670000	   -0.330000	   -0.200000	   10.121094
   12.1757	 -0.030500	  0.001500	  0.980000	    1.430000	    0.250000	    0.150000	   10.125000
   12.1857	  0.019000	 -0.072000	  1.007000	    0.680000	   -0.070000	    0.260000	   10.140625
   12.1957	  0.006500	 -0.099000	  1.003000	    0.920000	   -0.090000	    0.210000	   10.121094
   12.2057	  0.037500	 -0.057500	  1.039500	   -0.180000	   -0.190000	    0.280000	   10.117188
   12.2159	  0.034500	 -0.097500	  0.992500	    2.330000	   -0.820000	   -0.060000	   10.128906
   12.2257	 -0.026500	 -0.008500	  0.990000	    1.400000	    0.370000	    0.060000	   10.140625
   12.2357	  0.019000	 -0.083500	  0.946000	    1.050000	   -0.310000	    0.230000	   10.140625
   12.2458	 -0.023000	 -0.029500	  0.999500	    0.720000	    0.040000	    0.590000	   10.109375
   12.2557	  0.017500	 -0.087500	  1.072000	   -0.060000	   -0.730000	    0.560000	   10.125000
   12.2657	  0.008500	 -0.024000	  1.053500	    1.220000	   -0.710000	    0.350000	   10.121094
   12.2757	  0.008500	 -0.080000	  0.992500	    3.400000	   -0.870000	    0.620000	   10.121094
   12.2857	  0.075500	 -0.063000	  0.985500	    1.110000	   -0.520000	    0.550000	   10.125000
   12.2959	  0.111000	 -0.146000	  0.899500	    2.420000	   -0.430000	    0.230000	   10.117188
   12.3057	 -0.012000	  0.016000	  0.887500	    2.500000	   -1.070000	    0.180000	   10.132813
   12.3157	  0.034000	 -0.025000	  0.873500	    0.520000	   -0.670000	    0.140000	   10.152344
   12.3257	  0.062000	 -0.010500	  0.981500	   -1.120000	    0.010000	    0.050000	   10.148438
   12.3357	  0.089500	 -0.128500	  0.903500	    1.520000	    0.020000	    0.270000	   10.136719
   12.3458	  0.045000	 -0.016000	  0.843000	    1.320000	    0.460000	   -0.130000	   10.136719
   12.3557	  0.086500	 -0.045000	  0.946500	   -0.830000	    0.680000	   -0.190000	   10.132813
   12.3657	  0.008000	 -0.052500	  0.910000	   -1.180000	    1.040000	   -0.240000	   10.121094
   12.3759	  0.006500	 -0.020000	  1.023000	   -0.530000	    0.630000	   -0.080000	   10.125000
   12.3857	  0.010000	 -0.030000	  0.893000	    0.420000	    0.210000	    0.110000	   10.128906
   12.3957	  0.129000	 -0.079000	  0.973000	   -0.350000	    0.960000	    0.010000	   10.136719
   12.4057	  0.014000	 -0.066000	  0.908500	   -1.590000	    1.320000	   -0.250000	   10.148438
   12.4157	 -0.071500	  0.008000	  1.030500	   -1.170000	    0.900000	    0.010000	   10.148438
   12.4257	  0.054000	 -0.003500	  0.991500	    0.880000	   -0.090000	    0.100000	   10.156250
   12.4357	 -0.054500	 -0.101500	  0.874500	   -0.560000	    1.020000	    0.170000	   10.128906
   12.4458	 -0.028000	  0.030500	  0.962500	   -2.500000	    0.600000	    0.650000	   10.117188
   12.4559	  0.057500	 -0.045000	  1.048000	   -1.900000	   -0.660000	    0.660000	   10.101563
   12.4657	  0.041000	 -0.117000	  1.052000	   -0.850000	   -0.070000	    0.550000	   10.132813
   12.4757	 -0.034500	 -0.022000	  0.953500	   -0.320000	   -1.140000	    0.180000	   10.132813
   12.4857	  0.019000	 -0.008000	  1.038500	   -0.640000	   -0.210000	    0.510000	   10.156250
   12.4958	 -0.042500	  0.008500	  1.047500	   -1.640000	   -0.180000	    0.680000	   10.132813
