ï»¿Time_s    	AccX_g    	AccY_g    	AccZ_g    	GyroX_degs  	GyroY_degs  	GyroZ_degs  	IMU_Temperature
    0.1758	  0.001000	  0.034500	  1.011000	   -0.540000	   -0.170000	    0.240000	   19.722656
    0.1858	  0.001500	  0.034500	  1.012000	   -0.430000	   -0.140000	    0.270000	   19.718750
    0.1959	  0.002500	  0.035500	  1.009500	   -0.380000	   -0.190000	    0.170000	   19.738281
    0.2059	  0.000000	  0.033000	  1.009000	   -0.500000	   -0.250000	    0.250000	   19.753906
    0.2158	  0.000500	  0.035000	  1.010500	   -0.500000	   -0.230000	    0.310000	   19.750000
    0.2259	  0.001500	  0.034500	  1.009500	   -0.330000	   -0.030000	    0.190000	   19.738281
    0.2358	 -0.000500	  0.033500	  1.010500	   -0.440000	   -0.270000	    0.320000	   19.757813
    0.2458	 -0.001000	  0.032500	  1.010000	   -0.300000	   -0.060000	    0.190000	   19.742188
    0.2558	  0.000500	  0.033500	  1.009500	   -0.450000	   -0.140000	    0.220000	   19.722656
    0.2658	  0.000000	  0.033500	  1.011500	   -0.410000	   -0.110000	    0.240000	   19.734375
    0.2758	  0.000000	  0.031500	  1.011000	   -0.460000	   -0.170000	    0.360000	   19.738281
    0.2858	  0.000000	  0.032500	  1.009000	   -0.450000	   -0.190000	    0.170000	   19.738281
    0.2958	  0.000500	  0.034000	  1.010000	   -0.380000	   -0.170000	    0.060000	   19.734375
    0.3059	  0.000000	  0.034000	  1.010500	   -0.410000	   -0.200000	    0.310000	   19.742188
    0.3159	 -0.001500	  0.034000	  1.008500	   -0.390000	   -0.140000	    0.210000	   19.746094
    0.3259	  0.000500	  0.035000	  1.010000	   -0.400000	   -0.280000	    0.200000	   19.742188
    0.3359	  0.002000	  0.034000	  1.009500	   -0.480000	   -0.180000	    0.330000	   19.738281
    0.3459	  0.001500	  0.034500	  1.010000	   -0.390000	   -0.220000	    0.260000	   19.722656
    0.3559	  0.002000	  0.033500	  1.008500	   -0.430000	   -0.140000	    0.260000	   19.726563
    0.3659	  0.001500	  0.034500	  1.010000	   -0.380000	   -0.270000	    0.210000	   19.734375
    0.3759	  0.000000	  0.035000	  1.009500	   -0.340000	   -0.200000	    0.190000	   19.722656
    0.3859	  0.000500	  0.034500	  1.011000	   -0.550000	   -0.200000	    0.230000	   19.718750
    0.3959	  0.001500	  0.033500	  1.009000	   -0.500000	   -0.170000	    0.260000	   19.753906
    0.4059	  0.000500	  0.033500	  1.009000	   -0.490000	   -0.120000	    0.280000	   19.738281
    0.4159	  0.000000	  0.033500	  1.011000	   -0.420000	   -0.270000	    0.350000	   19.734375
    0.4259	 -0.000500	  0.034000	  1.012500	   -0.480000	   -0.160000	    0.300000	   19.734375
    0.4359	  0.000000	  0.032500	  1.008500	   -0.530000	   -0.020000	    0.280000	   19.722656
    0.4459	  0.000500	  0.034000	  1.011500	   -0.420000	   -0.050000	    0.260000	   19.726563
    0.4559	  0.001000	  0.034000	  1.009500	   -0.470000	   -0.120000	    0.170000	   19.734375
    0.4659	  0.001000	  0.035500	  1.011000	   -0.490000	   -0.180000	    0.220000	   19.722656
    0.4759	  0.001000	  0.034000	  1.009500	   -0.460000	   -0.100000	    0.270000	   19.742188
    0.4859	  0.001500	  0.034500	  1.011000	   -0.500000	   -0.190000	    0.210000	   19.742188
    0.4959	  0.000500	  0.035000	  1.010000	   -0.410000	   -0.220000	    0.270000	   19.722656
    0.5059	  0.001000	  0.034500	  1.010500	   -0.520000	   -0.160000	    0.270000	   19.746094
    0.5159	  0.000000	  0.035000	  1.011500	   -0.490000	   -0.080000	    0.290000	   19.750000
    0.5259	  0.000000	  0.035000	  1.010500	   -0.470000	   -0.170000	    0.300000	   19.757813
    0.5359	  0.001000	  0.033500	  1.011500	   -0.290000	   -0.180000	    0.330000	   19.753906
    0.5459	  0.000500	  0.034000	  1.011000	   -0.350000	   -0.160000	    0.230000	   19.730469
    0.5559	  0.000000	  0.034000	  1.008500	   -0.480000	   -0.180000	    0.240000	   19.726563
    0.5659	  0.002000	  0.033500	  1.011500	   -0.470000	   -0.160000	    0.260000	   19.734375
    0.5759	  0.000500	  0.034000	  1.012000	   -0.410000	   -0.030000	    0.230000	   19.746094
    0.5859	 -0.000500	  0.033000	  1.009500	   -0.570000	   -0.170000	    0.230000	   19.753906
    0.5959	 -0.000500	  0.033500	  1.009000	   -0.430000	   -0.250000	    0.280000	   19.714844
    0.6059	  0.001500	  0.034000	  1.012500	   -0.520000	   -0.250000	    0.170000	   19.718750
    0.6159	  0.000000	  0.034500	  1.010000	   -0.440000	   -0.270000	    0.290000	   19.734375
    0.6259	  0.000000	  0.033500	  1.007500	   -0.360000	   -0.110000	    0.220000	   19.726563
    0.6359	  0.000500	  0.035500	  1.010500	   -0.530000	   -0.160000	    0.330000	   19.734375
    0.6459	  0.000000	  0.034000	  1.010500	   -0.530000	   -0.320000	    0.350000	   19.734375
    0.6559	  0.001000	  0.036500	  1.010000	   -0.450000	   -0.270000	    0.270000	   19.722656
    0.6659	  0.001000	  0.033000	  1.010500	   -0.500000	   -0.190000	    0.330000	   19.714844
    0.6759	  0.001500	  0.034500	  1.011000	   -0.440000	   -0.140000	    0.220000	   19.730469
    0.6859	  0.000500	  0.035000	  1.008000	   -0.380000	   -0.080000	    0.310000	   19.742188
    0.6959	  0.000500	  0.034000	  1.013000	   -0.530000	   -0.170000	    0.160000	   19.726563
    0.7059	  0.000500	  0.032500	  1.008000	   -0.450000	   -0.120000	    0.160000	   19.726563
    0.7159	  0.001000	  0.034500	  1.010000	   -0.490000	   -0.100000	    0.190000	   19.730469
    0.7259	  0.000500	  0.033500	  1.009500	   -0.480000	   -0.170000	    0.260000	   19.722656
    0.7359	  0.000500	  0.033500	  1.012500	   -0.490000	   -0.100000	    0.230000	   19.722656
    0.7459	 -0.000500	  0.032000	  1.009500	   -0.430000	   -0.180000	    0.210000	   19.730469
    0.7559	  0.000000	  0.034500	  1.011000	   -0.320000	   -0.230000	    0.180000	   19.746094
    0.7659	  0.000000	  0.034500	  1.010500	   -0.490000	   -0.210000	    0.240000	   19.726563
    0.7759	  0.000500	  0.034000	  1.008500	   -0.500000	   -0.210000	    0.270000	   19.718750
    0.7859	 -0.000500	  0.033500	  1.009500	   -0.460000	   -0.210000	    0.210000	   19.726563
    0.7959	  0.001000	  0.034000	  1.009500	   -0.550000	   -0.200000	    0.380000	   19.722656
    0.8059	  0.001000	  0.036000	  1.012000	   -0.360000	   -0.070000	    0.260000	   19.730469
    0.8159	 -0.000500	  0.034000	  1.008000	   -0.490000	   -0.200000	    0.230000	   19.750000
    0.8259	  0.000000	  0.034500	  1.010500	   -0.340000	   -0.230000	    0.300000	   19.761719
    0.8359	  0.001000	  0.033000	  1.009000	   -0.400000	   -0.090000	    0.360000	   19.753906
    0.8459	  0.000000	  0.035000	  1.011500	   -0.460000	   -0.270000	    0.310000	   19.742188
    0.8559	  0.000000	  0.034000	  1.007500	   -0.480000	   -0.140000	    0.090000	   19.734375
    0.8659	 -0.000500	  0.035000	  1.011000	   -0.360000	   -0.300000	    0.240000	   19.730469
    0.8759	  0.002000	  0.033000	  1.010000	   -0.560000	   -0.170000	    0.230000	   19.730469
    0.8859	  0.000500	  0.034500	  1.010500	   -0.400000	   -0.210000	    0.210000	   19.734375
    0.8959	  0.000000	  0.032000	  1.009000	   -0.380000	   -0.140000	    0.240000	   19.750000
    0.9059	  0.001000	  0.035000	  1.011000	   -0.530000	   -0.220000	    0.230000	   19.734375
    0.9159	  0.001500	  0.035000	  1.010500	   -0.380000	   -0.030000	    0.240000	   19.746094
    0.9259	  0.000500	  0.033500	  1.009000	   -0.420000	   -0.130000	    0.270000	   19.765625
    0.9359	 -0.000500	  0.034000	  1.011000	   -0.510000	   -0.130000	    0.330000	   19.738281
    0.9459	  0.001000	  0.034500	  1.010500	   -0.440000	   -0.100000	    0.250000	   19.722656
    0.9559	  0.000000	  0.034500	  1.011500	   -0.440000	   -0.250000	    0.250000	   19.746094
    0.9659	  0.000000	  0.034500	  1.008500	   -0.410000	   -0.130000	    0.220000	   19.750000
    0.9759	  0.000500	  0.034000	  1.012000	   -0.540000	   -0.210000	    0.240000	   19.726563
    0.9859	  0.001500	  0.034500	  1.009500	   -0.540000	   -0.170000	    0.190000	   19.746094
    0.9959	  0.000500	  0.034500	  1.011000	   -0.440000	   -0.120000	    0.280000	   19.742188
    1.0059	  0.000000	  0.033500	  1.010000	   -0.400000	   -0.150000	    0.170000	   19.730469
    1.0159	  0.001500	  0.034000	  1.009500	   -0.540000	   -0.240000	    0.290000	   19.722656
    1.0259	  0.001000	  0.033500	  1.011000	   -0.490000	   -0.220000	    0.310000	   19.746094
    1.0359	  0.000000	  0.032000	  1.008500	   -0.460000	   -0.140000	    0.340000	   19.742188
    1.0459	  0.000000	  0.034000	  1.011500	   -0.480000	   -0.150000	    0.200000	   19.738281
    1.0559	  0.002000	  0.033500	  1.009000	   -0.560000	   -0.180000	    0.300000	   19.726563
    1.0659	  0.000500	  0.035000	  1.012000	   -0.380000	   -0.160000	    0.200000	   19.742188
    1.0759	  0.000000	  0.033500	  1.009500	   -0.530000	   -0.180000	    0.280000	   19.710938
    1.0859	  0.001000	  0.034000	  1.010500	   -0.400000	   -0.170000	    0.180000	   19.703125
    1.0959	  0.000500	  0.034000	  1.009000	   -0.470000	   -0.150000	    0.230000	   19.734375
    1.1059	  0.001500	  0.034500	  1.012000	   -0.370000	   -0.180000	    0.320000	   19.738281
    1.1159	  0.001000	  0.032500	  1.009000	   -0.340000	   -0.220000	    0.210000	   19.730469
    1.1259	  0.000500	  0.033500	  1.009500	   -0.380000	   -0.230000	    0.240000	   19.714844
    1.1359	  0.000000	  0.034500	  1.010000	   -0.510000	   -0.130000	    0.310000	   19.738281
    1.1459	  0.001500	  0.034000	  1.009500	   -0.430000	   -0.110000	    0.250000	   19.746094
    1.1559	 -0.000500	  0.034000	  1.011000	   -0.300000	   -0.090000	    0.240000	   19.753906
    1.1659	 -0.000500	  0.034000	  1.009000	   -0.510000	   -0.120000	    0.190000	   19.750000
    1.1759	  0.000500	  0.034000	  1.012000	   -0.500000	    0.010000	    0.210000	   19.750000
    1.1859	  0.000000	  0.033500	  1.007500	   -0.490000	   -0.220000	    0.280000	   19.718750
    1.1959	  0.000000	  0.034500	  1.011500	   -0.400000	   -0.110000	    0.250000	   19.726563
    1.2059	  0.002000	  0.035000	  1.009000	   -0.390000	   -0.190000	    0.420000	   19.722656
    1.2159	  0.002000	  0.034000	  1.010500	   -0.470000	   -0.190000	    0.240000	   19.718750
    1.2259	  0.000500	  0.034000	  1.009500	   -0.380000	   -0.140000	    0.260000	   19.757813
    1.2359	  0.000000	  0.035000	  1.009500	   -0.410000	   -0.160000	    0.190000	   19.742188
    1.2459	  0.002500	  0.035000	  1.010000	   -0.400000	   -0.220000	    0.210000	   19.730469
    1.2559	  0.001500	  0.035000	  1.009500	   -0.440000	   -0.200000	    0.270000	   19.738281
    1.2659	 -0.000500	  0.034000	  1.012500	   -0.620000	   -0.250000	    0.280000	   19.726563
    1.2759	  0.001500	  0.034000	  1.009000	   -0.400000	   -0.090000	    0.260000	   19.730469
    1.2859	  0.000000	  0.034500	  1.012500	   -0.310000	   -0.170000	    0.170000	   19.710938
    1.2959	  0.000500	  0.034000	  1.008500	   -0.540000	   -0.210000	    0.300000	   19.718750
    1.3059	  0.003500	  0.034000	  1.013000	   -0.520000	   -0.100000	    0.200000	   19.742188
    1.3159	 -0.000500	  0.032000	  1.008500	   -0.400000	   -0.180000	    0.200000	   19.773438
    1.3259	 -0.001500	  0.034500	  1.011000	   -0.450000	   -0.200000	    0.220000	   19.734375
    1.3359	  0.003000	  0.031500	  1.011500	   -0.370000	   -0.160000	    0.210000	   19.722656
    1.3459	  0.000500	  0.035000	  1.009500	   -0.440000	   -0.130000	    0.330000	   19.750000
    1.3559	 -0.001500	  0.034000	  1.009500	   -0.510000	   -0.200000	    0.240000	   19.765625
    1.3659	  0.001500	  0.034000	  1.011000	   -0.390000	   -0.120000	    0.230000	   19.757813
    1.3759	  0.002000	  0.033000	  1.010500	   -0.390000	   -0.150000	    0.170000	   19.742188
    1.3859	 -0.001500	  0.034000	  1.008000	   -0.510000	   -0.100000	    0.170000	   19.773438
    1.3959	  0.001000	  0.034000	  1.012500	   -0.440000	   -0.180000	    0.350000	   19.753906
    1.4059	  0.004000	  0.034500	  1.008500	   -0.540000	   -0.110000	    0.180000	   19.734375
    1.4159	  0.000000	  0.035500	  1.009000	   -0.510000	   -0.150000	    0.240000	   19.734375
    1.4259	  0.001000	  0.034000	  1.010000	   -0.480000	   -0.270000	    0.330000	   19.746094
    1.4359	  0.004000	  0.034500	  1.009000	   -0.490000	   -0.120000	    0.200000	   19.761719
    1.4459	  0.000500	  0.034000	  1.010500	   -0.470000	   -0.180000	    0.090000	   19.761719
    1.4559	 -0.001500	  0.034500	  1.011500	   -0.280000	   -0.090000	    0.270000	   19.753906
    1.4659	  0.002500	  0.034000	  1.011000	   -0.390000	   -0.090000	    0.220000	   19.761719
    1.4759	  0.002000	  0.034000	  1.011500	   -0.450000	   -0.050000	    0.130000	   19.750000
    1.4859	 -0.000500	  0.034000	  1.010500	   -0.410000	   -0.240000	    0.260000	   19.730469
    1.4959	  0.001000	  0.033500	  1.009500	   -0.360000	   -0.160000	    0.350000	   19.746094
    1.5059	  0.001500	  0.034000	  1.011500	   -0.410000	   -0.090000	    0.290000	   19.746094
    1.5159	  0.000500	  0.034500	  1.009000	   -0.430000	   -0.060000	    0.280000	   19.726563
    1.5259	 -0.000500	  0.034500	  1.010500	   -0.440000	   -0.190000	    0.300000	   19.734375
    1.5359	  0.002000	  0.033500	  1.010000	   -0.500000	   -0.100000	    0.280000	   19.757813
    1.5459	  0.002000	  0.034500	  1.011500	   -0.440000	   -0.090000	    0.220000	   19.742188
    1.5562	  0.000000	  0.033500	  1.009000	   -0.420000	   -0.010000	    0.260000	   19.710938
    1.5659	  0.000500	  0.034500	  1.009500	   -0.330000	   -0.040000	    0.270000	   19.738281
    1.5759	  0.001500	  0.033500	  1.011500	   -0.560000	   -0.320000	    0.330000	   19.734375
    1.5859	  0.000500	  0.034500	  1.011500	   -0.470000	   -0.130000	    0.290000	   19.742188
    1.5959	  0.001000	  0.033000	  1.011000	   -0.640000	   -0.200000	    0.220000	   19.750000
    1.6059	  0.000500	  0.033000	  1.010000	   -0.380000	   -0.100000	    0.220000	   19.730469
    1.6160	  0.001000	  0.034000	  1.011500	   -0.400000	   -0.110000	    0.300000	   19.726563
    1.6259	  0.000000	  0.033500	  1.009500	   -0.450000	   -0.100000	    0.170000	   19.742188
    1.6359	  0.000500	  0.034000	  1.009500	   -0.430000	   -0.130000	    0.340000	   19.742188
    1.6459	  0.000000	  0.033000	  1.009500	   -0.300000	   -0.110000	    0.240000	   19.722656
    1.6559	 -0.000500	  0.034500	  1.011000	   -0.490000	   -0.120000	    0.280000	   19.722656
    1.6659	  0.000000	  0.032500	  1.009000	   -0.490000	   -0.150000	    0.310000	   19.750000
    1.6759	 -0.000500	  0.034500	  1.010000	   -0.590000	   -0.110000	    0.300000	   19.757813
    1.6859	 -0.001000	  0.033500	  1.009000	   -0.380000	   -0.050000	    0.270000	   19.738281
    1.6959	 -0.001000	  0.033500	  1.008500	   -0.350000	   -0.010000	    0.230000	   19.738281
    1.7059	 -0.001000	  0.033500	  1.010500	   -0.410000	   -0.020000	    0.290000	   19.750000
    1.7159	 -0.001000	  0.034500	  1.007000	   -0.360000	   -0.170000	    0.170000	   19.750000
    1.7259	 -0.002500	  0.034000	  1.009000	   -0.440000	   -0.050000	    0.270000	   19.757813
    1.7359	  0.000000	  0.034000	  1.010000	   -0.360000	   -0.120000	    0.270000	   19.742188
    1.7459	 -0.001000	  0.034500	  1.008000	   -0.480000	   -0.140000	    0.290000	   19.722656
    1.7559	  0.000000	  0.033000	  1.007000	   -0.400000	   -0.230000	    0.250000	   19.753906
    1.7659	  0.000500	  0.034500	  1.008500	   -0.340000	   -0.170000	    0.190000	   19.757813
    1.7759	 -0.001000	  0.035000	  1.009500	   -0.520000	   -0.210000	    0.240000	   19.753906
    1.7859	  0.000000	  0.035000	  1.008000	   -0.560000	   -0.210000	    0.250000	   19.761719
    1.7959	  0.000000	  0.034000	  1.010000	   -0.440000	   -0.180000	    0.270000	   19.726563
    1.8059	 -0.000500	  0.034500	  1.009500	   -0.560000	   -0.230000	    0.260000	   19.730469
    1.8160	  0.000000	  0.034500	  1.010000	   -0.500000	   -0.190000	    0.320000	   19.734375
    1.8259	  0.000000	  0.033000	  1.010500	   -0.440000	   -0.240000	    0.220000	   19.722656
    1.8359	  0.000500	  0.035000	  1.009500	   -0.530000	   -0.190000	    0.310000	   19.746094
    1.8459	  0.001500	  0.033500	  1.010000	   -0.360000	   -0.150000	    0.190000	   19.753906
    1.8559	 -0.000500	  0.035000	  1.010000	   -0.380000	   -0.290000	    0.240000	   19.734375
    1.8659	  0.000500	  0.034000	  1.010000	   -0.440000	   -0.230000	    0.280000	   19.734375
    1.8759	  0.000000	  0.033500	  1.009000	   -0.420000	   -0.150000	    0.260000	   19.726563
    1.8859	  0.000000	  0.035000	  1.010000	   -0.450000	   -0.170000	    0.170000	   19.726563
    1.8959	  0.000000	  0.035000	  1.010000	   -0.530000	   -0.200000	    0.180000	   19.726563
    1.9059	  0.001000	  0.034000	  1.010500	   -0.460000	   -0.230000	    0.320000	   19.722656
    1.9160	  0.000000	  0.036000	  1.011000	   -0.430000	   -0.050000	    0.250000	   19.738281
    1.9259	 -0.000500	  0.035000	  1.010000	   -0.390000	   -0.180000	    0.340000	   19.734375
    1.9359	 -0.002000	  0.034500	  1.011500	   -0.350000	   -0.140000	    0.200000	   19.742188
    1.9459	  0.000500	  0.032000	  1.008000	   -0.480000	   -0.160000	    0.340000	   19.753906
    1.9559	  0.002500	  0.033000	  1.011500	   -0.580000	   -0.180000	    0.350000	   19.734375
    1.9659	  0.003000	  0.035000	  1.008500	   -0.440000	   -0.070000	    0.240000	   19.738281
    1.9759	  0.004000	  0.035000	  1.008500	   -0.370000	   -0.160000	    0.290000	   19.734375
    1.9859	  0.002500	  0.036500	  1.010500	   -0.460000	   -0.190000	    0.310000	   19.742188
    1.9959	  0.003000	  0.035500	  1.011000	   -0.430000	   -0.220000	    0.310000	   19.722656
    2.0059	  0.003500	  0.036000	  1.009000	   -0.450000	   -0.180000	    0.140000	   19.742188
    2.0160	  0.001000	  0.033500	  1.011000	   -0.430000	   -0.260000	    0.220000	   19.750000
    2.0259	  0.002000	  0.035000	  1.011000	   -0.420000	   -0.230000	    0.170000	   19.742188
    2.0359	  0.002500	  0.032500	  1.008500	   -0.460000	   -0.190000	    0.280000	   19.738281
    2.0459	 -0.000500	  0.033000	  1.010500	   -0.530000	   -0.090000	    0.270000	   19.730469
    2.0559	 -0.000500	  0.033000	  1.009000	   -0.410000	   -0.230000	    0.180000	   19.761719
    2.0659	  0.001000	  0.032500	  1.011000	   -0.460000	   -0.320000	    0.310000	   19.753906
    2.0759	  0.000000	  0.033500	  1.012500	   -0.470000	   -0.230000	    0.210000	   19.753906
    2.0859	 -0.000500	  0.034000	  1.009500	   -0.440000	   -0.140000	    0.270000	   19.750000
    2.0959	  0.000500	  0.034000	  1.008500	   -0.400000	   -0.240000	    0.140000	   19.734375
    2.1059	  0.001000	  0.032500	  1.010000	   -0.640000	   -0.100000	    0.410000	   19.746094
    2.1160	  0.000500	  0.033000	  1.010500	   -0.500000	   -0.120000	    0.270000	   19.738281
    2.1259	  0.001000	  0.034000	  1.010500	   -0.390000	   -0.180000	    0.240000	   19.753906
    2.1359	  0.001500	  0.033000	  1.011000	   -0.480000	   -0.140000	    0.420000	   19.761719
    2.1459	  0.000500	  0.034000	  1.010500	   -0.500000	   -0.030000	    0.330000	   19.750000
    2.1559	  0.002000	  0.035000	  1.010000	   -0.430000	   -0.070000	    0.170000	   19.730469
    2.1659	  0.002500	  0.036000	  1.008500	   -0.510000	   -0.060000	    0.190000	   19.750000
    2.1759	  0.002000	  0.035000	  1.009500	   -0.380000	   -0.200000	    0.210000	   19.761719
    2.1859	  0.003000	  0.033500	  1.008500	   -0.450000	   -0.180000	    0.330000	   19.765625
    2.1959	  0.001500	  0.033500	  1.010500	   -0.480000	   -0.210000	    0.190000	   19.746094
    2.2059	  0.000000	  0.034000	  1.011000	   -0.330000	   -0.270000	    0.210000	   19.761719
    2.2160	 -0.000500	  0.033000	  1.009500	   -0.630000	   -0.220000	    0.280000	   19.769531
    2.2259	  0.000000	  0.032500	  1.009000	   -0.410000	   -0.230000	    0.220000	   19.738281
    2.2359	 -0.001000	  0.031500	  1.009500	   -0.580000	   -0.160000	    0.230000	   19.738281
    2.2459	 -0.001000	  0.034500	  1.010500	   -0.440000	   -0.140000	    0.340000	   19.750000
    2.2559	 -0.000500	  0.033500	  1.009000	   -0.400000	   -0.300000	    0.290000	   19.722656
    2.2659	 -0.000500	  0.034500	  1.011000	   -0.530000	   -0.160000	    0.280000	   19.742188
    2.2759	  0.002000	  0.033500	  1.008000	   -0.440000	   -0.120000	    0.300000	   19.746094
    2.2859	  0.000000	  0.034000	  1.010500	   -0.490000	   -0.260000	    0.260000	   19.730469
    2.2959	  0.001000	  0.034000	  1.011000	   -0.540000	   -0.210000	    0.260000	   19.730469
    2.3059	  0.003000	  0.035500	  1.009500	   -0.490000	   -0.130000	    0.310000	   19.738281
    2.3160	  0.002500	  0.034500	  1.011000	   -0.450000	   -0.180000	    0.280000	   19.730469
    2.3259	  0.002000	  0.035500	  1.010000	   -0.500000	   -0.170000	    0.230000	   19.726563
    2.3359	  0.002500	  0.035500	  1.011500	   -0.410000	   -0.210000	    0.280000	   19.726563
    2.3459	  0.002000	  0.033000	  1.010500	   -0.510000	   -0.090000	    0.230000	   19.726563
    2.3559	  0.001500	  0.034000	  1.010500	   -0.330000	   -0.140000	    0.230000	   19.750000
    2.3659	  0.000000	  0.032500	  1.009000	   -0.410000	   -0.080000	    0.130000	   19.730469
    2.3759	 -0.000500	  0.034500	  1.010000	   -0.270000	   -0.090000	    0.100000	   19.734375
    2.3859	  0.001500	  0.034000	  1.011000	   -0.390000	   -0.120000	    0.150000	   19.726563
    2.3959	  0.000000	  0.035000	  1.010000	   -0.520000	   -0.250000	    0.400000	   19.722656
    2.4059	 -0.002000	  0.033000	  1.010000	   -0.460000	   -0.020000	    0.250000	   19.722656
    2.4160	  0.000000	  0.034500	  1.010500	   -0.520000	   -0.160000	    0.320000	   19.714844
    2.4259	 -0.000500	  0.034500	  1.010500	   -0.510000	   -0.050000	    0.210000	   19.718750
    2.4359	 -0.001500	  0.033500	  1.009500	   -0.540000	   -0.020000	    0.240000	   19.730469
    2.4459	  0.000500	  0.034000	  1.008000	   -0.450000	   -0.190000	    0.200000	   19.734375
    2.4559	  0.000000	  0.034000	  1.011000	   -0.410000	   -0.110000	    0.230000	   19.742188
    2.4659	  0.000000	  0.034000	  1.008000	   -0.470000	   -0.290000	    0.300000	   19.738281
    2.4759	  0.001500	  0.034500	  1.008500	   -0.500000	   -0.070000	    0.200000	   19.722656
    2.4859	  0.000500	  0.034000	  1.009500	   -0.300000	   -0.110000	    0.260000	   19.738281
    2.4959	  0.001000	  0.036000	  1.007500	   -0.440000	   -0.160000	    0.340000	   19.734375
    2.5059	  0.001000	  0.033500	  1.011500	   -0.420000	   -0.100000	    0.250000	   19.742188
    2.5159	  0.000000	  0.034000	  1.008500	   -0.400000	   -0.090000	    0.270000	   19.750000
    2.5259	  0.000000	  0.035000	  1.011500	   -0.400000	   -0.160000	    0.320000	   19.738281
    2.5359	  0.002500	  0.034000	  1.011000	   -0.530000	   -0.210000	    0.290000	   19.742188
    2.5459	  0.000500	  0.033500	  1.010000	   -0.340000	   -0.220000	    0.140000	   19.765625
    2.5559	 -0.000500	  0.033500	  1.009000	   -0.390000	   -0.180000	    0.140000	   19.726563
    2.5663	  0.002000	  0.034000	  1.010000	   -0.420000	   -0.010000	    0.240000	   19.746094
    2.5759	  0.000500	  0.033000	  1.010000	   -0.330000	   -0.130000	    0.260000	   19.750000
    2.5859	 -0.001500	  0.033000	  1.007500	   -0.410000	   -0.130000	    0.190000	   19.750000
    2.5959	  0.002000	  0.033000	  1.011000	   -0.440000	   -0.220000	    0.200000	   19.710938
    2.6059	  0.001500	  0.033500	  1.011000	   -0.360000	   -0.110000	    0.230000	   19.714844
    2.6159	 -0.002500	  0.033500	  1.007500	   -0.430000	   -0.100000	    0.230000	   19.746094
    2.6260	  0.001000	  0.034000	  1.011000	   -0.420000	   -0.150000	    0.280000	   19.734375
    2.6360	  0.001500	  0.033000	  1.011000	   -0.370000	   -0.210000	    0.250000	   19.742188
    2.6460	 -0.002500	  0.034500	  1.009500	   -0.390000	   -0.220000	    0.250000	   19.757813
    2.6559	  0.001000	  0.033500	  1.009500	   -0.440000	   -0.030000	    0.220000	   19.761719
    2.6660	  0.003000	  0.034000	  1.011000	   -0.480000	   -0.230000	    0.250000	   19.742188
    2.6759	 -0.001000	  0.033500	  1.008000	   -0.460000	   -0.170000	    0.200000	   19.742188
    2.6860	  0.000000	  0.035500	  1.009500	   -0.530000	   -0.310000	    0.290000	   19.750000
    2.6960	  0.003000	  0.035000	  1.011500	   -0.520000	   -0.140000	    0.150000	   19.738281
    2.7059	  0.000500	  0.034500	  1.008000	   -0.440000	   -0.270000	    0.350000	   19.750000
    2.7159	 -0.001500	  0.034000	  1.011000	   -0.450000	   -0.190000	    0.190000	   19.738281
    2.7260	  0.002500	  0.033000	  1.010000	   -0.410000	   -0.210000	    0.330000	   19.753906
    2.7359	  0.002500	  0.034000	  1.009000	   -0.400000	   -0.150000	    0.280000	   19.785156
    2.7460	 -0.001500	  0.034500	  1.010500	   -0.380000	   -0.070000	    0.210000	   19.773438
    2.7560	  0.000500	  0.034000	  1.011000	   -0.430000	   -0.160000	    0.310000	   19.750000
    2.7660	  0.001500	  0.034000	  1.009500	   -0.520000	   -0.180000	    0.300000	   19.730469
    2.7760	 -0.001000	  0.034500	  1.010500	   -0.460000	   -0.190000	    0.390000	   19.742188
    2.7860	 -0.001000	  0.034500	  1.010000	   -0.500000	   -0.220000	    0.300000	   19.738281
    2.7960	  0.002000	  0.034000	  1.009000	   -0.520000	   -0.050000	    0.230000	   19.734375
    2.8060	  0.000500	  0.033500	  1.010000	   -0.450000	   -0.160000	    0.180000	   19.734375
    2.8160	  0.000000	  0.034000	  1.009500	   -0.290000	   -0.190000	    0.340000	   19.738281
    2.8260	  0.001000	  0.034000	  1.009000	   -0.400000	   -0.230000	    0.260000	   19.753906
    2.8360	  0.002000	  0.033500	  1.010000	   -0.400000	   -0.170000	    0.300000	   19.734375
    2.8460	  0.000000	  0.034000	  1.010500	   -0.460000	   -0.190000	    0.240000	   19.734375
    2.8560	  0.000000	  0.034500	  1.009000	   -0.390000	   -0.210000	    0.280000	   19.738281
    2.8660	  0.004500	  0.034500	  1.009500	   -0.460000	   -0.120000	    0.260000	   19.753906
    2.8760	  0.001500	  0.033500	  1.010000	   -0.450000	   -0.140000	    0.340000	   19.765625
    2.8860	  0.000000	  0.034500	  1.008500	   -0.430000	   -0.190000	    0.280000	   19.765625
    2.8960	  0.001000	  0.033000	  1.010500	   -0.480000	    0.010000	    0.170000	   19.746094
    2.9060	  0.002000	  0.033000	  1.011000	   -0.470000	   -0.050000	    0.210000	   19.726563
    2.9160	 -0.000500	  0.035500	  1.010500	   -0.440000	   -0.210000	    0.240000	   19.718750
    2.9260	  0.000000	  0.033500	  1.011500	   -0.360000	   -0.160000	    0.280000	   19.742188
    2.9360	  0.001500	  0.033000	  1.010000	   -0.400000	   -0.350000	    0.100000	   19.742188
    2.9460	 -0.000500	  0.032500	  1.009000	   -0.410000	   -0.120000	    0.290000	   19.734375
    2.9560	  0.000000	  0.033500	  1.008500	   -0.410000	   -0.090000	    0.280000	   19.746094
    2.9660	  0.001000	  0.033000	  1.010500	   -0.410000	   -0.240000	    0.210000	   19.738281
    2.9760	 -0.000500	  0.033000	  1.009500	   -0.490000	   -0.160000	    0.250000	   19.742188
    2.9860	  0.000000	  0.035000	  1.009500	   -0.330000	   -0.180000	    0.230000	   19.761719
    2.9960	  0.002000	  0.033500	  1.008000	   -0.450000	   -0.140000	    0.240000	   19.742188
    3.0060	  0.001000	  0.035000	  1.008500	   -0.490000	   -0.170000	    0.210000	   19.753906
    3.0160	  0.000500	  0.035500	  1.009000	   -0.480000	   -0.120000	    0.230000	   19.769531
    3.0260	 -0.000500	  0.034500	  1.010500	   -0.240000	   -0.050000	    0.270000	   19.757813
    3.0360	  0.001500	  0.036500	  1.010500	   -0.390000	   -0.090000	    0.340000	   19.765625
    3.0460	  0.000500	  0.033500	  1.009500	   -0.380000	   -0.220000	    0.280000	   19.757813
    3.0560	  0.000500	  0.035500	  1.009500	   -0.390000	   -0.150000	    0.250000	   19.742188
    3.0660	  0.001500	  0.033500	  1.009000	   -0.470000	   -0.010000	    0.210000	   19.761719
    3.0760	  0.001500	  0.036000	  1.011000	   -0.540000	   -0.140000	    0.140000	   19.750000
    3.0860	 -0.000500	  0.033500	  1.010000	   -0.240000	   -0.120000	    0.320000	   19.722656
    3.0960	  0.001500	  0.036000	  1.010500	   -0.450000	   -0.170000	    0.240000	   19.742188
    3.1060	  0.000000	  0.034000	  1.011500	   -0.400000	   -0.130000	    0.260000	   19.753906
    3.1160	  0.000000	  0.035000	  1.010000	   -0.470000	   -0.250000	    0.250000	   19.738281
    3.1260	  0.000500	  0.033000	  1.009500	   -0.380000	   -0.050000	    0.240000	   19.753906
    3.1360	  0.000500	  0.033500	  1.010000	   -0.270000	   -0.090000	    0.190000	   19.750000
    3.1460	 -0.000500	  0.033000	  1.011500	   -0.500000	   -0.120000	    0.340000	   19.753906
    3.1560	 -0.001500	  0.033000	  1.010000	   -0.440000	   -0.200000	    0.220000	   19.750000
    3.1660	  0.000000	  0.034000	  1.010500	   -0.380000	   -0.160000	    0.200000	   19.750000
    3.1760	  0.001000	  0.034000	  1.010500	   -0.380000	   -0.150000	    0.310000	   19.753906
    3.1860	  0.001000	  0.034500	  1.009000	   -0.460000	   -0.270000	    0.240000	   19.753906
    3.1960	 -0.000500	  0.034000	  1.010000	   -0.490000	   -0.170000	    0.200000	   19.757813
    3.2060	  0.000000	  0.033000	  1.009500	   -0.410000	   -0.220000	    0.200000	   19.757813
    3.2160	  0.001000	  0.033500	  1.009500	   -0.470000	   -0.230000	    0.280000	   19.765625
    3.2260	  0.000500	  0.034500	  1.010500	   -0.570000	   -0.190000	    0.230000	   19.765625
    3.2360	  0.002000	  0.034500	  1.008500	   -0.500000	   -0.050000	    0.130000	   19.746094
    3.2460	  0.001500	  0.034500	  1.010000	   -0.420000	   -0.180000	    0.320000	   19.734375
    3.2560	  0.000500	  0.035500	  1.010000	   -0.370000	   -0.210000	    0.240000	   19.742188
    3.2660	  0.001000	  0.034500	  1.008500	   -0.570000	   -0.190000	    0.270000	   19.738281
    3.2760	  0.001500	  0.033500	  1.009000	   -0.480000	   -0.180000	    0.270000	   19.738281
    3.2860	  0.000000	  0.034000	  1.010500	   -0.470000	   -0.190000	    0.180000	   19.765625
    3.2960	  0.000000	  0.034500	  1.009000	   -0.390000	   -0.300000	    0.260000	   19.761719
    3.3060	  0.002000	  0.033500	  1.012000	   -0.440000	   -0.140000	    0.220000	   19.757813
    3.3160	  0.001000	  0.032500	  1.011000	   -0.450000	   -0.140000	    0.220000	   19.777344
    3.3260	 -0.000500	  0.035000	  1.009500	   -0.540000	   -0.290000	    0.210000	   19.753906
    3.3360	  0.001000	  0.033500	  1.010500	   -0.540000	   -0.150000	    0.210000	   19.761719
    3.3460	  0.001500	  0.034000	  1.010000	   -0.420000	   -0.290000	    0.210000	   19.769531
    3.3560	  0.000500	  0.032500	  1.009000	   -0.490000	   -0.150000	    0.270000	   19.726563
    3.3660	  0.001500	  0.034000	  1.009500	   -0.480000	   -0.230000	    0.360000	   19.734375
    3.3760	  0.001500	  0.033500	  1.009500	   -0.480000	   -0.210000	    0.240000	   19.734375
    3.3860	  0.001500	  0.035000	  1.009000	   -0.440000	   -0.230000	    0.200000	   19.734375
    3.3960	  0.001000	  0.034500	  1.010000	   -0.440000	   -0.220000	    0.250000	   19.757813
    3.4060	  0.002500	  0.033500	  1.009000	   -0.370000	   -0.100000	    0.310000	   19.734375
    3.4160	  0.001500	  0.034000	  1.010000	   -0.370000	   -0.060000	    0.200000	   19.750000
    3.4260	  0.000500	  0.033500	  1.009500	   -0.500000	   -0.390000	    0.270000	   19.738281
    3.4360	  0.001000	  0.034000	  1.010500	   -0.520000	   -0.300000	    0.300000	   19.750000
    3.4460	  0.001000	  0.033500	  1.009500	   -0.490000	   -0.070000	    0.230000	   19.765625
    3.4560	 -0.001500	  0.034500	  1.010000	   -0.470000	   -0.260000	    0.230000	   19.742188
    3.4660	  0.000500	  0.034000	  1.011000	   -0.520000	   -0.170000	    0.180000	   19.730469
    3.4760	  0.000000	  0.034000	  1.008000	   -0.480000	   -0.150000	    0.200000	   19.738281
    3.4860	 -0.000500	  0.034500	  1.009000	   -0.490000	   -0.230000	    0.240000	   19.730469
    3.4960	  0.000500	  0.033500	  1.010500	   -0.520000	   -0.060000	    0.270000	   19.765625
    3.5060	  0.002500	  0.035000	  1.010500	   -0.570000	   -0.150000	    0.310000	   19.734375
    3.5160	  0.000500	  0.034000	  1.010000	   -0.500000	   -0.080000	    0.220000	   19.726563
    3.5260	  0.002000	  0.034000	  1.010000	   -0.310000	   -0.030000	    0.300000	   19.753906
    3.5360	  0.001500	  0.034500	  1.010500	   -0.500000	   -0.170000	    0.260000	   19.757813
    3.5460	  0.001500	  0.035000	  1.009500	   -0.250000	   -0.160000	    0.230000	   19.738281
    3.5560	  0.001000	  0.035000	  1.009000	   -0.420000	    0.020000	    0.260000	   19.722656
    3.5660	  0.002000	  0.034000	  1.010000	   -0.460000	   -0.060000	    0.210000	   19.750000
    3.5764	  0.001500	  0.034500	  1.009000	   -0.470000	   -0.100000	    0.180000	   19.757813
    3.5860	  0.001500	  0.034000	  1.011000	   -0.420000	   -0.140000	    0.290000	   19.738281
    3.5960	  0.000500	  0.034000	  1.011000	   -0.530000	   -0.230000	    0.220000	   19.746094
    3.6060	  0.001000	  0.034000	  1.008000	   -0.450000	   -0.100000	    0.280000	   19.769531
    3.6160	  0.001000	  0.034500	  1.011500	   -0.540000	   -0.050000	    0.290000	   19.730469
    3.6261	  0.001000	  0.033500	  1.011000	   -0.570000	   -0.240000	    0.280000	   19.750000
    3.6360	  0.000000	  0.034500	  1.009000	   -0.380000	   -0.070000	    0.240000	   19.734375
    3.6460	 -0.001000	  0.035000	  1.009500	   -0.450000	   -0.010000	    0.290000	   19.714844
    3.6560	  0.001000	  0.031500	  1.009500	   -0.440000	   -0.120000	    0.270000	   19.750000
    3.6660	  0.000000	  0.034000	  1.010500	   -0.490000	   -0.190000	    0.210000	   19.750000
    3.6760	  0.000500	  0.033500	  1.009000	   -0.450000	   -0.150000	    0.210000	   19.750000
    3.6860	  0.001500	  0.034500	  1.010500	   -0.500000	   -0.080000	    0.190000	   19.750000
    3.6960	  0.001500	  0.033500	  1.010000	   -0.580000	   -0.150000	    0.270000	   19.726563
    3.7060	  0.001000	  0.033500	  1.009000	   -0.460000	   -0.060000	    0.210000	   19.722656
    3.7160	  0.000500	  0.034500	  1.011000	   -0.400000	   -0.020000	    0.230000	   19.750000
    3.7261	 -0.000500	  0.034000	  1.009500	   -0.360000	   -0.130000	    0.230000	   19.769531
    3.7360	 -0.000500	  0.034000	  1.009500	   -0.460000	   -0.090000	    0.350000	   19.761719
    3.7460	 -0.001000	  0.034500	  1.012500	   -0.470000	   -0.150000	    0.280000	   19.761719
    3.7560	 -0.001000	  0.032500	  1.009000	   -0.450000	   -0.110000	    0.220000	   19.757813
    3.7660	 -0.001000	  0.033000	  1.009000	   -0.550000	   -0.060000	    0.110000	   19.765625
    3.7760	  0.000500	  0.035000	  1.009500	   -0.450000	   -0.110000	    0.330000	   19.761719
    3.7860	  0.000500	  0.034500	  1.009000	   -0.530000	   -0.010000	    0.170000	   19.757813
    3.7960	 -0.001000	  0.034000	  1.010500	   -0.420000	   -0.120000	    0.270000	   19.746094
    3.8060	  0.000000	  0.034500	  1.010500	   -0.440000	   -0.110000	    0.230000	   19.750000
    3.8160	  0.000000	  0.033000	  1.008000	   -0.450000	   -0.200000	    0.310000	   19.769531
    3.8261	 -0.000500	  0.034500	  1.010000	   -0.510000	   -0.260000	    0.190000	   19.773438
    3.8360	 -0.000500	  0.033500	  1.009000	   -0.480000	   -0.150000	    0.250000	   19.753906
    3.8460	 -0.001000	  0.034500	  1.010500	   -0.440000	   -0.050000	    0.280000	   19.777344
    3.8560	 -0.000500	  0.034500	  1.010000	   -0.420000	   -0.070000	    0.150000	   19.781250
    3.8660	 -0.000500	  0.033000	  1.011000	   -0.430000	   -0.200000	    0.270000	   19.765625
    3.8760	 -0.000500	  0.034500	  1.009000	   -0.490000	   -0.100000	    0.230000	   19.773438
    3.8860	  0.000000	  0.034000	  1.010000	   -0.430000	   -0.220000	    0.110000	   19.773438
    3.8960	  0.000500	  0.033500	  1.008000	   -0.320000	   -0.210000	    0.290000	   19.753906
    3.9060	 -0.000500	  0.034500	  1.009000	   -0.530000	   -0.240000	    0.210000	   19.753906
    3.9160	  0.000500	  0.034000	  1.008500	   -0.400000	   -0.310000	    0.230000	   19.757813
    3.9261	  0.001000	  0.034500	  1.008500	   -0.500000	   -0.230000	    0.230000	   19.750000
    3.9360	  0.001000	  0.034500	  1.011000	   -0.410000	   -0.200000	    0.310000	   19.769531
    3.9460	  0.000500	  0.035000	  1.008500	   -0.410000	   -0.090000	    0.370000	   19.777344
    3.9560	  0.000000	  0.034000	  1.010500	   -0.460000	   -0.310000	    0.250000	   19.757813
    3.9660	  0.002500	  0.034000	  1.010000	   -0.370000	   -0.150000	    0.260000	   19.765625
    3.9760	 -0.000500	  0.036000	  1.009000	   -0.420000	   -0.220000	    0.190000	   19.753906
    3.9860	  0.000000	  0.033000	  1.009000	   -0.360000	   -0.140000	    0.140000	   19.757813
    3.9960	  0.003500	  0.034500	  1.011500	   -0.530000	   -0.100000	    0.260000	   19.765625
    4.0060	  0.001000	  0.034500	  1.009000	   -0.450000	   -0.260000	    0.260000	   19.789063
    4.0160	 -0.000500	  0.034500	  1.009000	   -0.460000	   -0.150000	    0.250000	   19.765625
    4.0261	  0.001500	  0.033000	  1.011500	   -0.430000	   -0.130000	    0.230000	   19.750000
    4.0360	  0.002000	  0.033500	  1.009000	   -0.510000	   -0.220000	    0.280000	   19.757813
    4.0460	 -0.001500	  0.033500	  1.009500	   -0.410000	   -0.120000	    0.190000	   19.757813
    4.0560	  0.000500	  0.033500	  1.009500	   -0.410000	   -0.270000	    0.210000	   19.777344
    4.0660	  0.003000	  0.033500	  1.010500	   -0.490000	   -0.150000	    0.290000	   19.761719
    4.0760	  0.000500	  0.033500	  1.011000	   -0.420000	   -0.200000	    0.190000	   19.746094
    4.0860	  0.000000	  0.034000	  1.012000	   -0.550000	   -0.280000	    0.250000	   19.734375
    4.0960	  0.002500	  0.033000	  1.010500	   -0.440000	   -0.090000	    0.200000	   19.765625
    4.1060	  0.001000	  0.034000	  1.010500	   -0.360000	   -0.110000	    0.280000	   19.761719
    4.1160	  0.000000	  0.034500	  1.011000	   -0.360000	   -0.280000	    0.300000	   19.753906
    4.1261	  0.002500	  0.034000	  1.008500	   -0.400000	   -0.080000	    0.320000	   19.761719
    4.1360	  0.003000	  0.033500	  1.010500	   -0.550000	   -0.100000	    0.310000	   19.765625
    4.1460	  0.000500	  0.033000	  1.010000	   -0.480000	   -0.160000	    0.110000	   19.765625
    4.1560	  0.001000	  0.034000	  1.010000	   -0.490000	   -0.200000	    0.300000	   19.769531
    4.1660	  0.002500	  0.032500	  1.012000	   -0.440000	   -0.080000	    0.210000	   19.750000
    4.1760	  0.001500	  0.033000	  1.009000	   -0.430000	   -0.190000	    0.270000	   19.742188
    4.1860	  0.000000	  0.033500	  1.011000	   -0.400000	   -0.090000	    0.200000	   19.746094
    4.1960	  0.001500	  0.034000	  1.010500	   -0.450000	   -0.240000	    0.300000	   19.746094
    4.2060	  0.001500	  0.033500	  1.010000	   -0.460000	   -0.310000	    0.180000	   19.769531
    4.2160	  0.000000	  0.033500	  1.010500	   -0.430000	   -0.170000	    0.200000	   19.746094
    4.2261	  0.000500	  0.034500	  1.010000	   -0.450000	   -0.120000	    0.280000	   19.753906
    4.2360	  0.002000	  0.033500	  1.009500	   -0.470000	   -0.120000	    0.250000	   19.746094
    4.2460	  0.002500	  0.034000	  1.011000	   -0.470000	   -0.180000	    0.280000	   19.750000
    4.2560	  0.001500	  0.034000	  1.008500	   -0.310000	   -0.110000	    0.200000	   19.777344
    4.2660	  0.002500	  0.035000	  1.011000	   -0.440000	   -0.170000	    0.320000	   19.785156
    4.2760	  0.001500	  0.035000	  1.011500	   -0.490000	   -0.170000	    0.270000	   19.773438
    4.2860	  0.001000	  0.034000	  1.011500	   -0.370000	   -0.140000	    0.260000	   19.789063
    4.2960	  0.001500	  0.034500	  1.008500	   -0.490000	   -0.140000	    0.240000	   19.800781
    4.3060	  0.002000	  0.033500	  1.011000	   -0.470000	   -0.090000	    0.210000	   19.761719
    4.3160	  0.000000	  0.033500	  1.008500	   -0.420000	   -0.110000	    0.320000	   19.769531
    4.3261	 -0.001000	  0.034000	  1.009500	   -0.480000	   -0.050000	    0.260000	   19.757813
    4.3360	  0.000000	  0.032000	  1.010500	   -0.460000	   -0.300000	    0.290000	   19.757813
    4.3460	  0.000500	  0.034500	  1.010000	   -0.400000	   -0.120000	    0.160000	   19.750000
    4.3560	 -0.001000	  0.033000	  1.008500	   -0.520000	   -0.220000	    0.310000	   19.757813
    4.3661	  0.000000	  0.033500	  1.009000	   -0.500000	   -0.140000	    0.210000	   19.757813
    4.3760	  0.001000	  0.034000	  1.010000	   -0.450000	   -0.240000	    0.330000	   19.777344
    4.3860	 -0.000500	  0.033500	  1.009000	   -0.380000	   -0.160000	    0.260000	   19.765625
    4.3961	  0.000000	  0.034000	  1.009500	   -0.390000	   -0.140000	    0.250000	   19.765625
    4.4060	  0.001500	  0.032000	  1.009000	   -0.510000	   -0.290000	    0.350000	   19.785156
    4.4160	  0.002000	  0.033500	  1.009000	   -0.420000	   -0.230000	    0.300000	   19.769531
    4.4261	  0.001000	  0.033500	  1.009500	   -0.390000	   -0.060000	    0.290000	   19.757813
    4.4360	  0.001000	  0.034000	  1.009500	   -0.370000	   -0.170000	    0.210000	   19.757813
    4.4460	  0.002000	  0.033000	  1.009500	   -0.480000	   -0.040000	    0.210000	   19.757813
    4.4560	  0.001500	  0.034500	  1.010000	   -0.510000	   -0.190000	    0.230000	   19.781250
    4.4660	  0.000500	  0.032000	  1.010000	   -0.380000	   -0.150000	    0.230000	   19.781250
    4.4760	  0.000500	  0.033500	  1.008000	   -0.540000	   -0.180000	    0.340000	   19.761719
    4.4861	  0.000000	  0.034500	  1.010000	   -0.530000	   -0.170000	    0.320000	   19.746094
    4.4961	  0.000000	  0.034500	  1.008500	   -0.290000	   -0.130000	    0.160000	   19.753906
    4.5060	 -0.000500	  0.034000	  1.011000	   -0.490000	   -0.230000	    0.150000	   19.757813
    4.5161	  0.000500	  0.033000	  1.009500	   -0.330000	   -0.100000	    0.250000	   19.730469
    4.5261	  0.000500	  0.034000	  1.008500	   -0.440000	   -0.090000	    0.190000	   19.761719
    4.5360	 -0.001000	  0.034000	  1.010000	   -0.350000	   -0.100000	    0.220000	   19.761719
    4.5461	  0.001000	  0.033500	  1.009000	   -0.380000	   -0.170000	    0.230000	   19.777344
    4.5560	  0.000500	  0.033000	  1.009500	   -0.460000	   -0.090000	    0.300000	   19.773438
    4.5661	  0.000000	  0.035000	  1.009500	   -0.420000	   -0.190000	    0.210000	   19.750000
    4.5764	  0.001000	  0.034500	  1.010500	   -0.460000	   -0.210000	    0.220000	   19.753906
    4.5861	  0.001500	  0.035500	  1.009000	   -0.410000	   -0.140000	    0.260000	   19.750000
    4.5961	  0.000500	  0.033500	  1.010500	   -0.440000	   -0.180000	    0.220000	   19.750000
    4.6061	  0.000000	  0.034500	  1.009500	   -0.490000	   -0.220000	    0.270000	   19.750000
    4.6161	  0.001000	  0.034500	  1.010000	   -0.300000	   -0.100000	    0.180000	   19.785156
    4.6261	  0.000500	  0.034000	  1.009500	   -0.490000	   -0.050000	    0.210000	   19.769531
    4.6361	  0.000500	  0.032500	  1.010000	   -0.450000	   -0.150000	    0.350000	   19.757813
    4.6461	  0.000500	  0.033000	  1.010000	   -0.430000	   -0.150000	    0.150000	   19.746094
    4.6561	  0.000500	  0.033500	  1.011000	   -0.430000	   -0.140000	    0.120000	   19.781250
    4.6661	  0.000000	  0.033500	  1.009000	   -0.450000	   -0.280000	    0.190000	   19.765625
    4.6761	  0.000000	  0.032500	  1.009000	   -0.450000	   -0.150000	    0.200000	   19.781250
    4.6861	  0.001000	  0.033500	  1.009000	   -0.380000	   -0.110000	    0.140000	   19.785156
    4.6961	  0.000000	  0.034000	  1.008500	   -0.430000	   -0.230000	    0.360000	   19.757813
    4.7061	 -0.001000	  0.034000	  1.009500	   -0.530000	   -0.170000	    0.450000	   19.761719
    4.7161	  0.000000	  0.034500	  1.008500	   -0.460000	   -0.160000	    0.200000	   19.781250
    4.7261	 -0.000500	  0.033000	  1.009500	   -0.430000	   -0.320000	    0.240000	   19.769531
    4.7361	 -0.000500	  0.034000	  1.009500	   -0.450000	   -0.130000	    0.230000	   19.765625
    4.7461	  0.000000	  0.034500	  1.008500	   -0.490000	   -0.160000	    0.300000	   19.792969
    4.7561	  0.000500	  0.034500	  1.009000	   -0.440000	   -0.160000	    0.200000	   19.777344
    4.7661	  0.000500	  0.034500	  1.010500	   -0.450000	   -0.300000	    0.320000	   19.777344
    4.7761	  0.001000	  0.033500	  1.009500	   -0.560000	   -0.170000	    0.290000	   19.765625
    4.7861	  0.002000	  0.034000	  1.009500	   -0.480000	   -0.250000	    0.270000	   19.750000
    4.7961	  0.001000	  0.034500	  1.010000	   -0.470000	   -0.090000	    0.320000	   19.769531
    4.8061	  0.002000	  0.033500	  1.011000	   -0.430000	   -0.120000	    0.200000	   19.773438
    4.8161	  0.001500	  0.033500	  1.010000	   -0.370000	   -0.150000	    0.200000	   19.765625
    4.8261	  0.001500	  0.034000	  1.011000	   -0.310000	   -0.040000	    0.220000	   19.765625
    4.8361	  0.001000	  0.033500	  1.010000	   -0.400000	   -0.030000	    0.130000	   19.757813
    4.8461	  0.001000	  0.034000	  1.011500	   -0.440000	   -0.240000	    0.270000	   19.765625
    4.8561	  0.000500	  0.035000	  1.012000	   -0.490000	   -0.180000	    0.190000	   19.769531
    4.8661	  0.001500	  0.033500	  1.009500	   -0.430000	   -0.170000	    0.280000	   19.761719
    4.8761	  0.000500	  0.033000	  1.011500	   -0.480000	   -0.170000	    0.280000	   19.750000
    4.8861	  0.000500	  0.033000	  1.010000	   -0.460000	   -0.120000	    0.230000	   19.781250
    4.8961	  0.000500	  0.033000	  1.011000	   -0.480000	   -0.220000	    0.220000	   19.773438
    4.9061	  0.001000	  0.033000	  1.009500	   -0.440000	   -0.200000	    0.320000	   19.765625
    4.9161	 -0.000500	  0.033500	  1.009000	   -0.440000	   -0.210000	    0.330000	   19.777344
    4.9261	  0.001500	  0.032500	  1.010500	   -0.430000	   -0.190000	    0.270000	   19.761719
    4.9361	  0.001000	  0.034000	  1.009000	   -0.470000	   -0.100000	    0.200000	   19.753906
    4.9461	 -0.001000	  0.033500	  1.010000	   -0.370000	   -0.190000	    0.330000	   19.765625
    4.9561	  0.000500	  0.034000	  1.008500	   -0.520000	   -0.150000	    0.180000	   19.753906
    4.9661	  0.002000	  0.035500	  1.011000	   -0.410000	   -0.130000	    0.310000	   19.746094
    4.9761	 -0.000500	  0.035000	  1.009000	   -0.560000	   -0.260000	    0.230000	   19.765625
    4.9861	  0.001500	  0.034500	  1.009500	   -0.490000	   -0.160000	    0.180000	   19.765625
    4.9961	  0.001000	  0.034000	  1.010500	   -0.550000	   -0.250000	    0.230000	   19.769531
    5.0061	 -0.000500	  0.033500	  1.010000	   -0.390000	   -0.070000	    0.310000	   19.761719
    5.0161	  0.000000	  0.036000	  1.008000	   -0.560000	   -0.170000	    0.220000	   19.746094
    5.0261	  0.001000	  0.033500	  1.010500	   -0.300000	   -0.150000	    0.200000	   19.761719
    5.0361	  0.000000	  0.034500	  1.010000	   -0.500000	   -0.260000	    0.280000	   19.765625
    5.0461	 -0.001000	  0.033500	  1.008000	   -0.510000	   -0.190000	    0.260000	   19.765625
    5.0561	  0.000000	  0.034500	  1.009000	   -0.530000	   -0.090000	    0.240000	   19.757813
    5.0661	  0.000000	  0.034500	  1.011500	   -0.540000	   -0.120000	    0.290000	   19.777344
    5.0761	  0.000500	  0.034500	  1.009000	   -0.360000	   -0.170000	    0.210000	   19.761719
    5.0861	  0.000500	  0.033500	  1.011000	   -0.490000	   -0.170000	    0.210000	   19.765625
    5.0961	  0.001000	  0.034500	  1.009500	   -0.460000	   -0.190000	    0.200000	   19.773438
    5.1061	  0.001500	  0.034500	  1.009000	   -0.620000	   -0.030000	    0.310000	   19.781250
    5.1161	  0.001500	  0.035000	  1.011500	   -0.410000	   -0.050000	    0.190000	   19.777344
    5.1261	  0.001500	  0.033500	  1.010500	   -0.450000	   -0.110000	    0.160000	   19.773438
    5.1361	  0.001500	  0.034000	  1.009000	   -0.410000	   -0.120000	    0.180000	   19.757813
    5.1461	  0.000500	  0.033000	  1.011500	   -0.530000	   -0.130000	    0.280000	   19.765625
    5.1561	  0.001000	  0.033000	  1.010000	   -0.300000	   -0.070000	    0.270000	   19.781250
    5.1661	  0.000500	  0.032000	  1.009000	   -0.460000	   -0.230000	    0.140000	   19.781250
    5.1761	  0.000000	  0.032500	  1.010500	   -0.330000	   -0.070000	    0.200000	   19.746094
    5.1861	  0.001500	  0.033000	  1.010500	   -0.380000	   -0.100000	    0.210000	   19.750000
    5.1961	  0.001500	  0.034500	  1.009000	   -0.390000	   -0.220000	    0.300000	   19.773438
    5.2061	 -0.001000	  0.032500	  1.010000	   -0.510000	   -0.160000	    0.250000	   19.777344
    5.2161	  0.000500	  0.033000	  1.010500	   -0.380000	   -0.050000	    0.230000	   19.789063
    5.2261	  0.000500	  0.033500	  1.009000	   -0.440000	   -0.220000	    0.330000	   19.753906
    5.2361	  0.001500	  0.035000	  1.011000	   -0.410000	   -0.270000	    0.190000	   19.773438
    5.2461	  0.001000	  0.034000	  1.009000	   -0.520000	   -0.180000	    0.380000	   19.773438
    5.2561	  0.000500	  0.034500	  1.009000	   -0.390000	   -0.240000	    0.370000	   19.761719
    5.2661	  0.002000	  0.034500	  1.010500	   -0.530000	   -0.230000	    0.230000	   19.750000
    5.2761	  0.001000	  0.033500	  1.008500	   -0.430000	   -0.130000	    0.300000	   19.757813
    5.2861	  0.001000	  0.034500	  1.009000	   -0.400000	   -0.220000	    0.290000	   19.773438
    5.2961	  0.001000	  0.034500	  1.010000	   -0.560000	   -0.170000	    0.320000	   19.777344
    5.3061	  0.000500	  0.036000	  1.010500	   -0.380000	   -0.170000	    0.220000	   19.765625
    5.3161	 -0.000500	  0.033500	  1.009000	   -0.490000	   -0.330000	    0.250000	   19.777344
    5.3261	  0.000500	  0.033500	  1.010000	   -0.440000	   -0.030000	    0.190000	   19.765625
    5.3361	  0.000500	  0.034000	  1.009500	   -0.480000	   -0.260000	    0.220000	   19.781250
    5.3461	  0.000000	  0.034000	  1.008000	   -0.420000	   -0.170000	    0.350000	   19.765625
    5.3561	  0.001000	  0.033500	  1.009500	   -0.570000	   -0.070000	    0.330000	   19.765625
    5.3661	  0.001000	  0.034500	  1.009000	   -0.390000	   -0.220000	    0.260000	   19.765625
    5.3761	  0.000000	  0.034500	  1.009500	   -0.650000	   -0.180000	    0.370000	   19.781250
    5.3861	  0.000500	  0.034000	  1.009500	   -0.510000	   -0.090000	    0.140000	   19.753906
    5.3961	  0.001500	  0.033000	  1.011000	   -0.460000	   -0.240000	    0.180000	   19.750000
    5.4061	  0.000500	  0.034000	  1.011000	   -0.520000	   -0.140000	    0.270000	   19.769531
    5.4161	  0.001500	  0.032500	  1.009500	   -0.550000	   -0.110000	    0.220000	   19.765625
    5.4262	  0.001500	  0.034000	  1.010500	   -0.390000	   -0.110000	    0.180000	   19.757813
    5.4361	  0.000500	  0.033500	  1.011000	   -0.420000	   -0.130000	    0.220000	   19.757813
    5.4461	  0.001500	  0.033500	  1.009000	   -0.360000	   -0.180000	    0.230000	   19.765625
    5.4561	  0.001000	  0.033000	  1.011000	   -0.500000	   -0.060000	    0.340000	   19.746094
    5.4661	  0.001500	  0.033500	  1.011000	   -0.490000	   -0.180000	    0.170000	   19.765625
    5.4761	  0.000000	  0.032500	  1.009000	   -0.430000	   -0.180000	    0.300000	   19.777344
    5.4861	  0.001000	  0.034500	  1.009500	   -0.490000	   -0.260000	    0.210000	   19.761719
    5.4961	  0.000000	  0.033500	  1.010000	   -0.430000	   -0.040000	    0.260000	   19.769531
    5.5061	  0.000500	  0.035500	  1.009000	   -0.480000	   -0.220000	    0.240000	   19.769531
    5.5161	  0.000500	  0.034000	  1.008500	   -0.440000	   -0.140000	    0.220000	   19.769531
    5.5261	  0.000500	  0.034500	  1.009500	   -0.340000	   -0.140000	    0.240000	   19.765625
    5.5361	  0.000500	  0.033500	  1.008500	   -0.450000	   -0.240000	    0.290000	   19.757813
    5.5461	  0.000000	  0.034500	  1.011000	   -0.490000	   -0.120000	    0.250000	   19.757813
    5.5561	  0.001000	  0.034000	  1.009500	   -0.380000	   -0.190000	    0.310000	   19.757813
    5.5661	  0.000000	  0.034500	  1.009500	   -0.470000	   -0.110000	    0.210000	   19.761719
    5.5761	  0.000000	  0.034000	  1.009500	   -0.480000	   -0.190000	    0.310000	   19.769531
    5.5865	  0.001000	  0.034500	  1.010500	   -0.320000	   -0.070000	    0.240000	   19.792969
    5.5961	  0.001000	  0.034500	  1.008500	   -0.460000	   -0.110000	    0.250000	   19.789063
    5.6061	  0.000500	  0.034500	  1.009000	   -0.400000	   -0.140000	    0.170000	   19.773438
    5.6161	  0.001500	  0.033500	  1.011500	   -0.390000	   -0.160000	    0.240000	   19.781250
    5.6262	  0.000500	  0.033000	  1.009500	   -0.390000	   -0.090000	    0.230000	   19.773438
    5.6361	  0.001000	  0.034500	  1.010000	   -0.430000	   -0.120000	    0.260000	   19.742188
    5.6461	  0.000000	  0.033500	  1.009500	   -0.500000	   -0.180000	    0.140000	   19.761719
    5.6561	  0.000500	  0.033500	  1.010500	   -0.500000	   -0.160000	    0.340000	   19.781250
    5.6661	 -0.000500	  0.034000	  1.009500	   -0.370000	   -0.240000	    0.220000	   19.757813
    5.6761	 -0.001000	  0.032500	  1.010000	   -0.380000	   -0.170000	    0.280000	   19.765625
    5.6861	 -0.000500	  0.033000	  1.009500	   -0.440000	   -0.140000	    0.310000	   19.769531
    5.6961	 -0.000500	  0.034500	  1.011500	   -0.440000	   -0.240000	    0.240000	   19.757813
    5.7061	 -0.001000	  0.034000	  1.009500	   -0.490000	   -0.080000	    0.230000	   19.750000
    5.7161	 -0.000500	  0.033000	  1.009000	   -0.450000	   -0.060000	    0.260000	   19.761719
    5.7262	  0.001000	  0.032500	  1.009000	   -0.420000	   -0.140000	    0.230000	   19.785156
    5.7361	  0.001000	  0.034500	  1.009500	   -0.380000	   -0.110000	    0.310000	   19.785156
    5.7461	  0.000000	  0.034000	  1.007500	   -0.510000	   -0.120000	    0.240000	   19.753906
    5.7561	  0.000500	  0.034000	  1.011000	   -0.390000	   -0.160000	    0.280000	   19.777344
    5.7661	  0.001000	  0.034000	  1.009000	   -0.500000	   -0.260000	    0.270000	   19.785156
    5.7761	  0.001000	  0.033500	  1.009500	   -0.510000	   -0.140000	    0.350000	   19.777344
    5.7861	  0.000000	  0.034000	  1.008000	   -0.460000	   -0.200000	    0.270000	   19.781250
    5.7961	  0.000500	  0.035000	  1.009000	   -0.400000	   -0.210000	    0.260000	   19.769531
    5.8061	 -0.000500	  0.034000	  1.009000	   -0.410000	   -0.210000	    0.340000	   19.773438
    5.8161	  0.000000	  0.034500	  1.010000	   -0.480000	   -0.150000	    0.140000	   19.785156
    5.8262	  0.001500	  0.032500	  1.010500	   -0.560000	   -0.320000	    0.270000	   19.789063
    5.8361	  0.001500	  0.035000	  1.010000	   -0.410000	   -0.140000	    0.250000	   19.773438
    5.8461	  0.001000	  0.034500	  1.010000	   -0.450000	   -0.180000	    0.270000	   19.773438
    5.8561	  0.000000	  0.034000	  1.011000	   -0.420000	   -0.140000	    0.310000	   19.781250
    5.8661	  0.001000	  0.033500	  1.010000	   -0.550000	   -0.160000	    0.330000	   19.796875
    5.8761	  0.002000	  0.034500	  1.010500	   -0.380000	   -0.170000	    0.220000	   19.800781
    5.8861	  0.001500	  0.033000	  1.010500	   -0.470000	   -0.120000	    0.250000	   19.781250
    5.8961	  0.001500	  0.033500	  1.010500	   -0.370000	   -0.180000	    0.260000	   19.789063
    5.9061	  0.001000	  0.034000	  1.010500	   -0.420000	   -0.140000	    0.350000	   19.773438
    5.9161	  0.001000	  0.033500	  1.010000	   -0.340000	   -0.190000	    0.270000	   19.769531
    5.9262	  0.002000	  0.034000	  1.009500	   -0.520000	   -0.190000	    0.250000	   19.753906
    5.9361	  0.001000	  0.034500	  1.010000	   -0.370000	   -0.100000	    0.250000	   19.769531
    5.9461	  0.000000	  0.033000	  1.010500	   -0.420000	   -0.130000	    0.280000	   19.769531
    5.9561	  0.000500	  0.033500	  1.009000	   -0.420000	   -0.190000	    0.150000	   19.777344
    5.9661	  0.001000	  0.033500	  1.010500	   -0.540000	   -0.250000	    0.450000	   19.765625
    5.9761	  0.001000	  0.033000	  1.010000	   -0.500000	   -0.120000	    0.350000	   19.761719
    5.9861	 -0.001000	  0.032500	  1.009500	   -0.480000	   -0.130000	    0.290000	   19.785156
    5.9961	  0.000500	  0.033500	  1.009500	   -0.440000	   -0.230000	    0.260000	   19.785156
    6.0061	  0.001000	  0.033500	  1.009000	   -0.510000	   -0.190000	    0.230000	   19.781250
    6.0161	 -0.000500	  0.034000	  1.010000	   -0.440000	   -0.150000	    0.270000	   19.765625
    6.0262	  0.000500	  0.033500	  1.010000	   -0.400000	   -0.130000	    0.170000	   19.761719
    6.0361	  0.001000	  0.034000	  1.010000	   -0.450000	   -0.210000	    0.320000	   19.792969
    6.0461	  0.002000	  0.034500	  1.010500	   -0.420000	   -0.150000	    0.320000	   19.785156
    6.0561	  0.001000	  0.034000	  1.009000	   -0.520000	   -0.250000	    0.310000	   19.785156
    6.0661	  0.001000	  0.035000	  1.008500	   -0.300000	   -0.060000	    0.210000	   19.789063
    6.0761	  0.001500	  0.034500	  1.008500	   -0.440000	   -0.200000	    0.180000	   19.777344
    6.0861	  0.001000	  0.034500	  1.009500	   -0.440000	   -0.130000	    0.360000	   19.769531
    6.0961	  0.000500	  0.034500	  1.009500	   -0.320000	   -0.110000	    0.320000	   19.773438
    6.1061	  0.000500	  0.034000	  1.010500	   -0.460000	   -0.180000	    0.270000	   19.781250
    6.1161	  0.000500	  0.033500	  1.011000	   -0.480000	   -0.170000	    0.270000	   19.765625
    6.1262	 -0.001000	  0.034000	  1.010500	   -0.480000	   -0.080000	    0.240000	   19.792969
    6.1361	  0.000000	  0.033500	  1.011000	   -0.370000	   -0.010000	    0.320000	   19.785156
    6.1461	  0.000000	  0.033500	  1.010000	   -0.430000	   -0.120000	    0.200000	   19.789063
    6.1561	  0.000500	  0.033000	  1.011000	   -0.460000	   -0.210000	    0.160000	   19.792969
    6.1661	  0.000000	  0.033000	  1.009500	   -0.470000	   -0.290000	    0.280000	   19.765625
    6.1761	  0.002500	  0.034500	  1.009500	   -0.530000	   -0.140000	    0.280000	   19.746094
    6.1861	  0.001500	  0.035000	  1.010500	   -0.360000	   -0.130000	    0.240000	   19.777344
    6.1961	  0.001500	  0.035000	  1.008500	   -0.460000	   -0.200000	    0.290000	   19.804688
    6.2061	  0.001500	  0.034500	  1.010000	   -0.440000	   -0.140000	    0.260000	   19.785156
    6.2161	  0.001000	  0.034000	  1.010000	   -0.450000	   -0.130000	    0.200000	   19.773438
    6.2262	  0.000500	  0.035000	  1.010500	   -0.510000	   -0.140000	    0.230000	   19.769531
    6.2361	  0.000000	  0.034500	  1.008500	   -0.410000	   -0.150000	    0.190000	   19.769531
    6.2461	 -0.000500	  0.033000	  1.010500	   -0.360000	   -0.120000	    0.180000	   19.777344
    6.2562	 -0.000500	  0.033000	  1.009000	   -0.360000	   -0.050000	    0.300000	   19.765625
    6.2662	  0.000000	  0.034500	  1.010000	   -0.510000	   -0.220000	    0.260000	   19.777344
    6.2762	  0.000500	  0.033500	  1.011000	   -0.450000	   -0.120000	    0.290000	   19.781250
    6.2862	  0.000000	  0.033500	  1.009000	   -0.510000	   -0.220000	    0.190000	   19.781250
    6.2961	  0.001000	  0.033500	  1.009000	   -0.420000	   -0.230000	    0.240000	   19.820313
    6.3062	  0.000500	  0.034000	  1.010500	   -0.450000	   -0.250000	    0.340000	   19.796875
    6.3161	  0.001500	  0.035500	  1.009000	   -0.540000	   -0.270000	    0.260000	   19.773438
    6.3262	  0.002000	  0.034000	  1.010500	   -0.580000	   -0.130000	    0.200000	   19.777344
    6.3361	  0.002500	  0.033500	  1.010000	   -0.430000	   -0.220000	    0.180000	   19.769531
    6.3462	  0.002000	  0.034000	  1.009000	   -0.440000	   -0.270000	    0.280000	   19.785156
    6.3561	  0.002000	  0.034000	  1.010000	   -0.430000	   -0.100000	    0.220000	   19.769531
    6.3662	  0.002500	  0.034500	  1.010500	   -0.450000	   -0.210000	    0.250000	   19.765625
    6.3762	  0.001500	  0.033000	  1.010000	   -0.340000	   -0.080000	    0.260000	   19.757813
    6.3862	  0.001500	  0.034000	  1.010000	   -0.500000	   -0.170000	    0.250000	   19.781250
    6.3962	  0.000000	  0.033500	  1.009500	   -0.490000	   -0.210000	    0.120000	   19.773438
    6.4062	 -0.001500	  0.032500	  1.009500	   -0.390000	   -0.140000	    0.300000	   19.769531
    6.4162	  0.000500	  0.032500	  1.008500	   -0.490000	   -0.190000	    0.160000	   19.792969
    6.4262	 -0.000500	  0.033000	  1.010500	   -0.610000	   -0.180000	    0.180000	   19.808594
    6.4362	 -0.000500	  0.033000	  1.008500	   -0.470000	   -0.160000	    0.280000	   19.781250
    6.4462	  0.000000	  0.033000	  1.009000	   -0.410000	   -0.120000	    0.230000	   19.789063
    6.4562	  0.001000	  0.034500	  1.009000	   -0.430000	   -0.160000	    0.310000	   19.765625
    6.4662	  0.001500	  0.034000	  1.008500	   -0.620000	   -0.250000	    0.260000	   19.757813
    6.4762	  0.002500	  0.034000	  1.009500	   -0.400000	   -0.240000	    0.260000	   19.773438
    6.4862	  0.002500	  0.034000	  1.008500	   -0.490000	   -0.130000	    0.260000	   19.765625
    6.4962	  0.001500	  0.033000	  1.009000	   -0.390000	   -0.090000	    0.190000	   19.761719
    6.5062	  0.001500	  0.033000	  1.009500	   -0.550000	   -0.150000	    0.300000	   19.761719
    6.5162	  0.000500	  0.035000	  1.011500	   -0.510000	   -0.150000	    0.350000	   19.765625
    6.5262	  0.000500	  0.034500	  1.010500	   -0.380000	   -0.230000	    0.160000	   19.789063
    6.5362	  0.000000	  0.034000	  1.010000	   -0.480000	   -0.220000	    0.230000	   19.777344
    6.5462	  0.000000	  0.034000	  1.011000	   -0.490000	   -0.220000	    0.190000	   19.781250
    6.5562	  0.000000	  0.033000	  1.009500	   -0.420000	   -0.100000	    0.160000	   19.789063
    6.5662	  0.000000	  0.033500	  1.010500	   -0.390000	   -0.140000	    0.360000	   19.789063
    6.5762	 -0.000500	  0.033000	  1.010000	   -0.520000	   -0.130000	    0.240000	   19.777344
    6.5865	  0.001000	  0.034500	  1.011000	   -0.410000	   -0.150000	    0.330000	   19.792969
    6.5962	  0.000000	  0.033500	  1.009500	   -0.470000	   -0.150000	    0.280000	   19.781250
    6.6062	  0.000500	  0.034500	  1.009500	   -0.380000	   -0.120000	    0.200000	   19.753906
    6.6162	  0.000500	  0.034500	  1.008500	   -0.430000	   -0.160000	    0.240000	   19.765625
    6.6262	  0.000500	  0.034500	  1.010000	   -0.390000	   -0.280000	    0.220000	   19.769531
    6.6362	  0.001000	  0.034000	  1.009000	   -0.340000	   -0.120000	    0.250000	   19.773438
    6.6462	  0.001000	  0.034500	  1.010000	   -0.610000	   -0.260000	    0.260000	   19.765625
    6.6562	  0.001000	  0.034500	  1.010000	   -0.500000	   -0.210000	    0.320000	   19.781250
    6.6662	  0.001500	  0.035000	  1.011500	   -0.520000	   -0.300000	    0.280000	   19.781250
    6.6762	  0.001000	  0.033500	  1.009500	   -0.450000	   -0.100000	    0.180000	   19.781250
    6.6862	  0.001000	  0.034500	  1.008000	   -0.570000	   -0.220000	    0.330000	   19.769531
    6.6962	  0.002500	  0.034000	  1.011000	   -0.490000	   -0.150000	    0.320000	   19.796875
    6.7062	  0.001500	  0.033000	  1.009500	   -0.380000	   -0.190000	    0.250000	   19.789063
    6.7162	  0.001500	  0.033500	  1.010000	   -0.490000	   -0.210000	    0.260000	   19.789063
    6.7262	  0.000500	  0.034000	  1.010000	   -0.420000	   -0.110000	    0.310000	   19.781250
    6.7362	  0.000000	  0.034500	  1.011000	   -0.440000	   -0.180000	    0.320000	   19.769531
    6.7462	  0.000500	  0.034000	  1.010000	   -0.490000	   -0.280000	    0.230000	   19.777344
    6.7562	  0.002000	  0.033000	  1.009000	   -0.400000	   -0.040000	    0.200000	   19.761719
    6.7662	  0.000500	  0.034500	  1.008000	   -0.420000	   -0.170000	    0.270000	   19.777344
    6.7762	  0.000500	  0.034500	  1.010500	   -0.320000	   -0.120000	    0.090000	   19.796875
    6.7862	  0.000000	  0.033500	  1.009000	   -0.430000	   -0.090000	    0.230000	   19.789063
    6.7962	  0.000000	  0.032500	  1.008000	   -0.430000	   -0.110000	    0.250000	   19.804688
    6.8062	 -0.001000	  0.034000	  1.010500	   -0.470000	   -0.140000	    0.190000	   19.792969
    6.8162	  0.000000	  0.033500	  1.010000	   -0.530000	   -0.180000	    0.250000	   19.769531
    6.8262	 -0.001000	  0.034500	  1.009500	   -0.490000	   -0.100000	    0.210000	   19.769531
    6.8362	 -0.001000	  0.034500	  1.009500	   -0.430000	   -0.100000	    0.160000	   19.781250
    6.8462	 -0.000500	  0.034500	  1.011000	   -0.480000	   -0.210000	    0.240000	   19.785156
    6.8562	 -0.001000	  0.034000	  1.009000	   -0.410000	   -0.120000	    0.340000	   19.785156
    6.8662	  0.001000	  0.035000	  1.008500	   -0.450000	   -0.100000	    0.320000	   19.781250
    6.8762	  0.003500	  0.032500	  1.008500	   -0.500000	   -0.170000	    0.260000	   19.781250
    6.8862	  0.002500	  0.033000	  1.007000	   -0.430000	    0.010000	    0.250000	   19.785156
    6.8962	  0.002000	  0.033500	  1.007500	   -0.380000	   -0.110000	    0.320000	   19.796875
    6.9062	  0.005000	  0.034500	  1.009000	   -0.430000	   -0.060000	    0.330000	   19.781250
    6.9162	  0.003500	  0.033500	  1.010000	   -0.590000	   -0.050000	    0.300000	   19.777344
    6.9262	  0.002000	  0.036000	  1.010500	   -0.320000	   -0.180000	    0.180000	   19.808594
    6.9362	  0.004000	  0.034000	  1.012000	   -0.430000	   -0.160000	    0.260000	   19.804688
    6.9462	  0.003500	  0.036000	  1.012500	   -0.570000	   -0.200000	    0.250000	   19.789063
    6.9562	  0.000500	  0.035000	  1.010500	   -0.490000	   -0.110000	    0.220000	   19.781250
    6.9662	  0.000000	  0.034000	  1.010500	   -0.510000	   -0.100000	    0.160000	   19.777344
    6.9762	  0.000500	  0.032500	  1.011500	   -0.520000	   -0.200000	    0.210000	   19.757813
    6.9862	 -0.000500	  0.032500	  1.008000	   -0.430000	   -0.160000	    0.260000	   19.777344
    6.9962	  0.000000	  0.031500	  1.011000	   -0.390000	   -0.150000	    0.250000	   19.781250
    7.0062	 -0.001000	  0.031500	  1.011500	   -0.370000	   -0.180000	    0.240000	   19.781250
    7.0162	 -0.003000	  0.032500	  1.010500	   -0.470000	   -0.060000	    0.170000	   19.777344
    7.0262	 -0.002500	  0.033500	  1.009500	   -0.540000	   -0.140000	    0.280000	   19.777344
    7.0362	 -0.002500	  0.033000	  1.010500	   -0.410000	   -0.160000	    0.210000	   19.769531
    7.0462	 -0.003000	  0.032000	  1.010500	   -0.540000	   -0.290000	    0.200000	   19.796875
    7.0562	 -0.002500	  0.034000	  1.009000	   -0.460000	   -0.130000	    0.180000	   19.781250
    7.0662	 -0.001500	  0.033000	  1.010000	   -0.460000	   -0.220000	    0.380000	   19.773438
    7.0762	  0.000000	  0.036500	  1.007500	   -0.350000	   -0.170000	    0.330000	   19.781250
    7.0862	  0.000500	  0.036500	  1.006500	   -0.440000	   -0.230000	    0.320000	   19.789063
    7.0962	  0.000000	  0.037000	  1.008500	   -0.390000	   -0.200000	    0.360000	   19.769531
    7.1062	  0.001500	  0.036000	  1.005500	   -0.390000	   -0.040000	    0.300000	   19.781250
    7.1162	  0.004500	  0.035000	  1.005500	   -0.390000	   -0.180000	    0.380000	   19.792969
    7.1262	  0.002500	  0.036500	  1.009000	   -0.460000	   -0.220000	    0.310000	   19.781250
    7.1362	  0.001500	  0.036500	  1.009000	   -0.510000	   -0.220000	    0.320000	   19.785156
    7.1462	  0.003000	  0.033000	  1.007000	   -0.440000	   -0.280000	    0.270000	   19.785156
    7.1562	  0.002000	  0.033500	  1.013000	   -0.350000	   -0.130000	    0.260000	   19.804688
    7.1662	  0.002000	  0.035000	  1.008000	   -0.410000	   -0.210000	    0.270000	   19.808594
    7.1762	  0.001500	  0.034500	  1.010000	   -0.370000	   -0.260000	    0.080000	   19.781250
    7.1862	  0.001500	  0.035000	  1.013000	   -0.420000	   -0.160000	    0.250000	   19.777344
    7.1962	  0.002500	  0.035000	  1.011000	   -0.380000	   -0.100000	    0.190000	   19.785156
    7.2062	 -0.000500	  0.033500	  1.013500	   -0.460000	   -0.220000	    0.170000	   19.789063
    7.2162	 -0.001500	  0.032000	  1.012000	   -0.490000	   -0.200000	    0.080000	   19.789063
    7.2263	 -0.000500	  0.031000	  1.010000	   -0.460000	   -0.230000	    0.210000	   19.781250
    7.2362	 -0.002000	  0.028500	  1.009500	   -0.560000	   -0.270000	    0.270000	   19.773438
    7.2462	 -0.002000	  0.029500	  1.012000	   -0.530000	   -0.280000	    0.210000	   19.785156
    7.2562	 -0.002500	  0.029000	  1.009000	   -0.460000	   -0.180000	    0.070000	   19.789063
    7.2662	 -0.003000	  0.032500	  1.010500	   -0.530000	   -0.030000	    0.270000	   19.789063
    7.2762	  0.000500	  0.032500	  1.008500	   -0.490000	   -0.210000	    0.250000	   19.808594
    7.2862	  0.002500	  0.032500	  1.011000	   -0.460000	   -0.160000	    0.240000	   19.789063
    7.2962	  0.001500	  0.035000	  1.006000	   -0.450000	   -0.110000	    0.230000	   19.792969
    7.3062	  0.003500	  0.035500	  1.007500	   -0.320000	   -0.060000	    0.280000	   19.785156
    7.3162	  0.006500	  0.036000	  1.007500	   -0.540000	   -0.270000	    0.200000	   19.789063
    7.3263	  0.005500	  0.036500	  1.007500	   -0.530000	   -0.090000	    0.270000	   19.800781
    7.3362	  0.003000	  0.035000	  1.006500	   -0.460000	   -0.160000	    0.260000	   19.773438
    7.3462	  0.003000	  0.034500	  1.007500	   -0.170000	   -0.250000	    0.240000	   19.785156
    7.3562	  0.000500	  0.034000	  1.008500	   -0.390000	   -0.260000	    0.200000	   19.800781
    7.3662	 -0.002000	  0.033500	  1.009500	   -0.420000	   -0.200000	    0.280000	   19.796875
    7.3762	 -0.002500	  0.033500	  1.013000	   -0.440000	   -0.280000	    0.290000	   19.777344
    7.3862	 -0.001500	  0.033500	  1.012500	   -0.370000	   -0.130000	    0.230000	   19.808594
    7.3962	 -0.002000	  0.031000	  1.010000	   -0.370000	   -0.110000	    0.180000	   19.804688
    7.4062	 -0.001500	  0.033500	  1.011500	   -0.560000	   -0.060000	    0.330000	   19.789063
    7.4162	  0.001500	  0.033500	  1.012000	   -0.440000	   -0.010000	    0.300000	   19.773438
    7.4263	  0.003000	  0.036000	  1.010500	   -0.430000	   -0.210000	    0.370000	   19.761719
    7.4362	  0.001500	  0.036500	  1.010500	   -0.580000	   -0.250000	    0.330000	   19.781250
    7.4462	  0.004000	  0.037500	  1.009500	   -0.530000	   -0.080000	    0.310000	   19.796875
    7.4562	  0.006000	  0.037500	  1.010500	   -0.460000	   -0.150000	    0.310000	   19.781250
    7.4662	  0.003000	  0.037500	  1.012500	   -0.440000	   -0.260000	    0.260000	   19.785156
    7.4762	  0.005000	  0.036500	  1.011500	   -0.530000	   -0.160000	    0.270000	   19.789063
    7.4862	  0.005500	  0.035500	  1.010000	   -0.390000	   -0.160000	    0.220000	   19.792969
    7.4962	  0.002500	  0.033000	  1.011000	   -0.490000	   -0.130000	    0.170000	   19.781250
    7.5062	  0.003500	  0.033000	  1.009500	   -0.450000	   -0.170000	    0.220000	   19.800781
    7.5162	  0.002500	  0.032000	  1.010000	   -0.470000	   -0.010000	    0.010000	   19.816406
    7.5262	  0.000000	  0.032000	  1.013000	   -0.310000	   -0.170000	    0.090000	   19.800781
    7.5362	 -0.001500	  0.030500	  1.011000	   -0.450000	   -0.100000	    0.210000	   19.769531
    7.5462	 -0.002500	  0.031000	  1.010500	   -0.500000	   -0.230000	    0.220000	   19.769531
    7.5562	 -0.005500	  0.029000	  1.010500	   -0.470000	   -0.230000	    0.180000	   19.777344
    7.5662	 -0.005500	  0.031000	  1.009000	   -0.560000	   -0.140000	    0.280000	   19.796875
    7.5766	 -0.005000	  0.031000	  1.008000	   -0.380000	   -0.190000	    0.290000	   19.812500
    7.5862	 -0.006500	  0.032500	  1.008500	   -0.400000	   -0.230000	    0.300000	   19.789063
    7.5962	 -0.004500	  0.032000	  1.011000	   -0.450000	   -0.160000	    0.280000	   19.773438
    7.6062	 -0.002500	  0.031500	  1.005500	   -0.380000	   -0.050000	    0.380000	   19.761719
    7.6162	  0.004000	  0.032500	  1.003500	   -0.420000	   -0.170000	    0.380000	   19.792969
    7.6263	  0.010000	  0.034500	  1.006000	   -0.430000	   -0.180000	    0.370000	   19.804688
    7.6362	  0.010500	  0.038500	  1.005500	   -0.570000	   -0.150000	    0.350000	   19.792969
    7.6462	  0.010000	  0.039500	  1.006500	   -0.540000	   -0.270000	    0.260000	   19.789063
    7.6562	  0.008500	  0.040000	  1.009000	   -0.450000	   -0.140000	    0.140000	   19.789063
    7.6662	  0.005000	  0.040000	  1.009000	   -0.510000	   -0.160000	    0.210000	   19.812500
    7.6762	 -0.003500	  0.038000	  1.013000	   -0.390000	   -0.270000	    0.260000	   19.796875
    7.6862	 -0.004500	  0.035500	  1.012500	   -0.270000	   -0.100000	    0.090000	   19.812500
    7.6962	 -0.004500	  0.033500	  1.009000	   -0.380000	   -0.160000	    0.120000	   19.796875
    7.7062	 -0.009500	  0.031000	  1.013500	   -0.560000	   -0.090000	    0.180000	   19.804688
    7.7162	 -0.006000	  0.031500	  1.013000	   -0.380000	   -0.060000	    0.160000	   19.812500
    7.7263	 -0.002000	  0.029000	  1.006500	   -0.510000	   -0.180000	    0.270000	   19.789063
    7.7362	  0.000000	  0.030000	  1.009000	   -0.410000	   -0.130000	    0.140000	   19.773438
    7.7462	  0.004000	  0.029000	  1.010000	   -0.420000	   -0.110000	    0.230000	   19.789063
    7.7562	  0.006500	  0.031000	  1.006000	   -0.440000	   -0.220000	    0.160000	   19.781250
    7.7662	  0.003000	  0.032500	  1.008500	   -0.390000	   -0.160000	    0.280000	   19.785156
    7.7762	  0.005500	  0.034500	  1.012500	   -0.410000	   -0.280000	    0.230000	   19.796875
    7.7862	  0.002500	  0.035000	  1.012000	   -0.430000	   -0.240000	    0.360000	   19.781250
    7.7962	 -0.004500	  0.036500	  1.012500	   -0.490000	   -0.190000	    0.180000	   19.781250
    7.8062	 -0.002500	  0.035000	  1.010000	   -0.290000	   -0.130000	    0.140000	   19.777344
    7.8162	  0.000000	  0.036000	  1.012000	   -0.340000	   -0.070000	    0.160000	   19.792969
    7.8263	 -0.003500	  0.036500	  1.010000	   -0.510000	   -0.210000	    0.290000	   19.781250
    7.8362	 -0.003500	  0.036000	  1.006500	   -0.490000	   -0.150000	    0.250000	   19.777344
    7.8462	  0.004000	  0.032500	  1.009000	   -0.510000	   -0.170000	    0.290000	   19.796875
    7.8562	  0.003000	  0.033500	  1.007500	   -0.490000	   -0.130000	    0.250000	   19.785156
    7.8662	 -0.000500	  0.032000	  1.007500	   -0.500000	   -0.210000	    0.310000	   19.789063
    7.8762	  0.001000	  0.031000	  1.009500	   -0.530000	   -0.190000	    0.360000	   19.812500
    7.8862	  0.003000	  0.031000	  1.010000	   -0.520000	   -0.280000	    0.220000	   19.769531
    7.8962	 -0.003000	  0.032500	  1.010500	   -0.520000	   -0.280000	    0.330000	   19.796875
    7.9062	 -0.003000	  0.034000	  1.012500	   -0.560000	   -0.150000	    0.330000	   19.804688
    7.9162	  0.002500	  0.035000	  1.010500	   -0.370000	   -0.140000	    0.270000	   19.800781
    7.9263	 -0.000500	  0.035500	  1.010500	   -0.470000	   -0.130000	    0.280000	   19.812500
    7.9362	 -0.001500	  0.037000	  1.012500	   -0.550000	   -0.070000	    0.280000	   19.796875
    7.9462	  0.005500	  0.037500	  1.010000	   -0.460000	   -0.140000	    0.240000	   19.785156
    7.9562	  0.003500	  0.037500	  1.009500	   -0.440000	   -0.170000	    0.260000	   19.808594
    7.9663	  0.001500	  0.036500	  1.009000	   -0.440000	    0.000000	    0.260000	   19.804688
    7.9763	  0.005500	  0.036000	  1.007500	   -0.510000	   -0.140000	    0.140000	   19.796875
    7.9862	  0.005500	  0.034500	  1.009500	   -0.410000	   -0.110000	    0.170000	   19.777344
    7.9962	  0.001000	  0.032500	  1.008000	   -0.440000	   -0.210000	    0.080000	   19.781250
    8.0062	  0.000500	  0.031500	  1.008000	   -0.390000	   -0.130000	    0.180000	   19.785156
    8.0162	  0.001000	  0.031000	  1.011500	   -0.470000	   -0.280000	    0.280000	   19.777344
    8.0263	 -0.002000	  0.030000	  1.010000	   -0.290000	   -0.090000	    0.160000	   19.777344
    8.0362	 -0.003000	  0.031500	  1.011500	   -0.450000	   -0.170000	    0.230000	   19.773438
    8.0463	 -0.001000	  0.031500	  1.011000	   -0.430000	    0.010000	    0.200000	   19.789063
    8.0563	  0.000000	  0.032000	  1.008500	   -0.550000	   -0.200000	    0.240000	   19.792969
    8.0663	 -0.004500	  0.032000	  1.010500	   -0.450000	   -0.160000	    0.310000	   19.781250
    8.0763	 -0.002000	  0.031500	  1.009000	   -0.430000	   -0.180000	    0.330000	   19.781250
    8.0863	 -0.002000	  0.032500	  1.007500	   -0.450000	   -0.220000	    0.230000	   19.796875
    8.0963	 -0.004000	  0.034000	  1.013000	   -0.410000	   -0.230000	    0.280000	   19.808594
    8.1063	  0.000000	  0.033500	  1.008500	   -0.390000	   -0.180000	    0.290000	   19.785156
    8.1163	  0.002500	  0.035500	  1.010000	   -0.530000	   -0.060000	    0.300000	   19.796875
    8.1263	  0.005000	  0.033500	  1.010500	   -0.490000	   -0.120000	    0.200000	   19.804688
    8.1363	  0.006500	  0.036000	  1.007500	   -0.480000	   -0.140000	    0.210000	   19.808594
    8.1463	  0.004000	  0.035500	  1.008000	   -0.460000	   -0.180000	    0.230000	   19.808594
    8.1563	  0.005000	  0.036500	  1.010000	   -0.410000	   -0.170000	    0.210000	   19.796875
    8.1663	  0.005500	  0.034000	  1.008000	   -0.450000	   -0.190000	    0.220000	   19.773438
    8.1763	  0.001000	  0.036500	  1.007000	   -0.550000	   -0.220000	    0.100000	   19.792969
    8.1863	 -0.001000	  0.036500	  1.011500	   -0.410000	   -0.210000	    0.150000	   19.792969
    8.1963	 -0.000500	  0.034500	  1.011000	   -0.340000	   -0.170000	    0.250000	   19.789063
    8.2063	 -0.003500	  0.034000	  1.011000	   -0.440000	   -0.300000	    0.290000	   19.777344
    8.2163	 -0.004000	  0.034000	  1.011000	   -0.350000	   -0.130000	    0.170000	   19.781250
    8.2263	 -0.001500	  0.034500	  1.009500	   -0.440000	   -0.190000	    0.300000	   19.789063
    8.2363	  0.000000	  0.032500	  1.014000	   -0.440000	   -0.230000	    0.250000	   19.796875
    8.2463	  0.002000	  0.032500	  1.010500	   -0.510000	   -0.190000	    0.280000	   19.812500
    8.2563	  0.002000	  0.032500	  1.010000	   -0.390000	   -0.230000	    0.220000	   19.796875
    8.2663	  0.002000	  0.031500	  1.012000	   -0.340000	   -0.170000	    0.170000	   19.785156
    8.2763	  0.003000	  0.032000	  1.009500	   -0.400000	   -0.010000	    0.200000	   19.816406
    8.2863	  0.002500	  0.032500	  1.008500	   -0.510000	   -0.160000	    0.330000	   19.804688
    8.2963	  0.002000	  0.033000	  1.010500	   -0.450000	   -0.240000	    0.300000	   19.808594
    8.3063	  0.001500	  0.034000	  1.010000	   -0.540000	   -0.150000	    0.380000	   19.804688
    8.3163	 -0.001000	  0.034500	  1.010000	   -0.440000	   -0.120000	    0.310000	   19.800781
    8.3263	 -0.001000	  0.034000	  1.011000	   -0.510000	   -0.120000	    0.220000	   19.789063
    8.3363	  0.000500	  0.034000	  1.010000	   -0.490000	   -0.220000	    0.260000	   19.792969
    8.3463	 -0.001000	  0.035000	  1.009500	   -0.390000	   -0.170000	    0.230000	   19.796875
    8.3563	  0.000000	  0.034500	  1.008500	   -0.530000	   -0.100000	    0.170000	   19.808594
    8.3663	  0.002000	  0.033000	  1.008500	   -0.270000	   -0.120000	    0.360000	   19.800781
    8.3763	  0.002000	  0.034000	  1.008500	   -0.440000	   -0.060000	    0.250000	   19.792969
    8.3863	  0.000500	  0.033500	  1.010500	   -0.510000	   -0.150000	    0.270000	   19.792969
    8.3963	  0.001000	  0.033500	  1.007500	   -0.500000	   -0.190000	    0.320000	   19.812500
    8.4063	  0.002500	  0.035000	  1.008000	   -0.520000	   -0.250000	    0.320000	   19.828125
    8.4163	  0.001500	  0.035000	  1.010500	   -0.500000	   -0.220000	    0.160000	   19.820313
    8.4263	  0.001000	  0.035500	  1.009000	   -0.470000	   -0.210000	    0.320000	   19.824219
    8.4363	  0.000500	  0.035500	  1.009000	   -0.460000	   -0.060000	    0.230000	   19.804688
    8.4463	 -0.001000	  0.034000	  1.010500	   -0.460000	   -0.190000	    0.210000	   19.812500
    8.4563	 -0.002500	  0.034000	  1.009500	   -0.500000	   -0.170000	    0.280000	   19.808594
    8.4663	  0.000000	  0.034500	  1.009500	   -0.420000	   -0.270000	    0.300000	   19.804688
    8.4763	  0.001500	  0.033500	  1.009500	   -0.320000	   -0.110000	    0.270000	   19.812500
    8.4863	  0.000500	  0.034000	  1.009000	   -0.470000	   -0.100000	    0.230000	   19.796875
    8.4963	  0.002500	  0.033000	  1.010000	   -0.490000	   -0.200000	    0.260000	   19.789063
    8.5063	  0.002500	  0.033000	  1.009000	   -0.420000	   -0.060000	    0.230000	   19.816406
    8.5163	  0.002500	  0.032500	  1.008000	   -0.430000	   -0.120000	    0.210000	   19.777344
    8.5263	  0.000000	  0.033000	  1.011500	   -0.390000	   -0.220000	    0.260000	   19.773438
    8.5363	  0.000000	  0.032500	  1.010000	   -0.490000	   -0.170000	    0.310000	   19.792969
    8.5463	 -0.001000	  0.033000	  1.011000	   -0.470000	   -0.080000	    0.240000	   19.816406
    8.5563	 -0.001000	  0.033500	  1.010500	   -0.360000	   -0.140000	    0.250000	   19.796875
    8.5663	 -0.001500	  0.032500	  1.010000	   -0.590000	   -0.100000	    0.210000	   19.804688
    8.5767	 -0.002500	  0.033500	  1.011000	   -0.410000	   -0.150000	    0.270000	   19.800781
    8.5863	 -0.001500	  0.034500	  1.010000	   -0.410000	   -0.270000	    0.350000	   19.800781
    8.5963	  0.001000	  0.034500	  1.009500	   -0.470000	   -0.150000	    0.360000	   19.781250
    8.6063	  0.000500	  0.034500	  1.008000	   -0.410000	   -0.080000	    0.290000	   19.800781
    8.6163	  0.000500	  0.034000	  1.009500	   -0.450000	   -0.200000	    0.210000	   19.820313
    8.6263	  0.002000	  0.034000	  1.009500	   -0.490000	   -0.140000	    0.190000	   19.808594
    8.6363	  0.002500	  0.033000	  1.009500	   -0.530000	   -0.230000	    0.320000	   19.800781
    8.6463	 -0.000500	  0.034500	  1.009500	   -0.520000	   -0.170000	    0.270000	   19.804688
    8.6563	  0.003000	  0.036000	  1.010500	   -0.480000	   -0.060000	    0.190000	   19.792969
    8.6663	  0.002000	  0.035500	  1.008500	   -0.480000	   -0.230000	    0.280000	   19.777344
    8.6763	  0.001000	  0.036000	  1.009500	   -0.560000	   -0.070000	    0.330000	   19.769531
    8.6863	  0.002000	  0.035000	  1.009500	   -0.370000	   -0.210000	    0.320000	   19.796875
    8.6963	  0.002500	  0.036000	  1.011000	   -0.380000	   -0.160000	    0.160000	   19.800781
    8.7063	 -0.001000	  0.035000	  1.009500	   -0.450000	   -0.140000	    0.110000	   19.785156
    8.7163	  0.000500	  0.033500	  1.008000	   -0.480000	   -0.220000	    0.230000	   19.804688
    8.7263	  0.001000	  0.032000	  1.010500	   -0.390000	   -0.110000	    0.150000	   19.824219
    8.7363	  0.000000	  0.032500	  1.010000	   -0.500000	   -0.160000	    0.260000	   19.804688
    8.7463	 -0.001500	  0.033000	  1.010000	   -0.510000	   -0.110000	    0.210000	   19.808594
    8.7563	  0.001500	  0.033000	  1.009000	   -0.490000	   -0.250000	    0.280000	   19.808594
    8.7663	  0.000500	  0.032500	  1.009000	   -0.410000	   -0.130000	    0.250000	   19.800781
    8.7763	 -0.000500	  0.032500	  1.008500	   -0.470000	   -0.250000	    0.200000	   19.777344
    8.7863	  0.001000	  0.033000	  1.010000	   -0.450000	   -0.100000	    0.170000	   19.789063
    8.7963	  0.001500	  0.032000	  1.009500	   -0.640000	   -0.270000	    0.230000	   19.804688
    8.8063	  0.000500	  0.033000	  1.010500	   -0.480000	   -0.210000	    0.230000	   19.800781
    8.8163	  0.002000	  0.033500	  1.009500	   -0.470000	   -0.060000	    0.210000	   19.812500
    8.8263	  0.000500	  0.034000	  1.009500	   -0.420000	   -0.180000	    0.230000	   19.812500
    8.8363	 -0.001500	  0.034500	  1.010000	   -0.430000	   -0.020000	    0.210000	   19.789063
    8.8463	  0.001000	  0.034000	  1.008500	   -0.460000	   -0.140000	    0.330000	   19.789063
    8.8563	  0.002000	  0.033000	  1.010500	   -0.470000	   -0.120000	    0.330000	   19.785156
    8.8663	  0.001000	  0.033500	  1.009500	   -0.390000	   -0.150000	    0.250000	   19.789063
    8.8763	  0.001500	  0.035000	  1.010000	   -0.520000	    0.000000	    0.210000	   19.792969
    8.8863	  0.001500	  0.033000	  1.009000	   -0.460000	   -0.120000	    0.220000	   19.785156
    8.8963	  0.002000	  0.034500	  1.009000	   -0.410000	   -0.190000	    0.200000	   19.785156
    8.9063	  0.001000	  0.034500	  1.009500	   -0.340000	    0.030000	    0.220000	   19.816406
    8.9163	  0.001500	  0.034500	  1.009000	   -0.540000	   -0.110000	    0.330000	   19.785156
    8.9264	  0.001000	  0.033500	  1.009500	   -0.500000	   -0.190000	    0.240000	   19.769531
    8.9363	 -0.000500	  0.034500	  1.009500	   -0.530000	   -0.080000	    0.150000	   19.820313
    8.9463	 -0.000500	  0.034000	  1.010500	   -0.460000	   -0.060000	    0.250000	   19.812500
    8.9563	  0.000500	  0.034500	  1.009000	   -0.330000	   -0.190000	    0.230000	   19.800781
    8.9663	  0.001500	  0.034500	  1.010500	   -0.370000	   -0.120000	    0.170000	   19.808594
    8.9763	  0.000000	  0.033500	  1.009000	   -0.430000	   -0.140000	    0.200000	   19.808594
    8.9863	  0.000000	  0.033000	  1.009000	   -0.510000	   -0.110000	    0.240000	   19.816406
    8.9963	  0.001000	  0.032500	  1.010000	   -0.430000	   -0.070000	    0.180000	   19.800781
    9.0063	  0.000500	  0.033000	  1.010000	   -0.510000	   -0.240000	    0.230000	   19.804688
    9.0163	  0.002500	  0.032500	  1.009000	   -0.560000	   -0.300000	    0.190000	   19.800781
    9.0264	  0.001500	  0.033500	  1.010000	   -0.430000	   -0.110000	    0.310000	   19.828125
    9.0363	  0.000500	  0.033500	  1.009500	   -0.470000	   -0.010000	    0.190000	   19.804688
    9.0463	 -0.000500	  0.033500	  1.010000	   -0.500000	   -0.140000	    0.230000	   19.800781
    9.0563	  0.000000	  0.033500	  1.011000	   -0.480000	   -0.140000	    0.220000	   19.804688
    9.0663	  0.000000	  0.034000	  1.009000	   -0.390000	   -0.380000	    0.330000	   19.812500
    9.0763	 -0.001500	  0.034500	  1.010000	   -0.350000	   -0.100000	    0.260000	   19.824219
    9.0863	  0.001000	  0.033000	  1.009000	   -0.570000	   -0.100000	    0.140000	   19.832031
    9.0963	  0.000500	  0.036000	  1.010500	   -0.440000	   -0.180000	    0.300000	   19.847656
    9.1063	 -0.000500	  0.034500	  1.009500	   -0.430000	   -0.100000	    0.300000	   19.824219
    9.1163	  0.001000	  0.033000	  1.008500	   -0.430000	   -0.070000	    0.230000	   19.800781
    9.1264	  0.001500	  0.034500	  1.010500	   -0.500000	   -0.250000	    0.300000	   19.804688
    9.1363	  0.001500	  0.033500	  1.008500	   -0.380000	   -0.090000	    0.220000	   19.839844
    9.1463	  0.001000	  0.034500	  1.008500	   -0.430000	   -0.190000	    0.290000	   19.835938
    9.1563	  0.000000	  0.034000	  1.008500	   -0.360000	   -0.080000	    0.300000	   19.804688
    9.1663	  0.001000	  0.034500	  1.009000	   -0.420000	   -0.120000	    0.230000	   19.804688
    9.1763	  0.000500	  0.033500	  1.009500	   -0.440000	   -0.110000	    0.120000	   19.824219
    9.1863	  0.000500	  0.035000	  1.008500	   -0.420000	   -0.150000	    0.230000	   19.820313
    9.1963	  0.000000	  0.034500	  1.010500	   -0.520000	   -0.170000	    0.210000	   19.828125
    9.2063	  0.001500	  0.034000	  1.009500	   -0.480000	   -0.210000	    0.280000	   19.812500
    9.2163	  0.000500	  0.034000	  1.010000	   -0.490000	   -0.040000	    0.230000	   19.781250
    9.2264	  0.000000	  0.034500	  1.010500	   -0.480000	   -0.240000	    0.230000	   19.796875
    9.2363	  0.001000	  0.032500	  1.009000	   -0.430000	   -0.250000	    0.220000	   19.812500
    9.2463	  0.002000	  0.033000	  1.010500	   -0.490000	   -0.080000	    0.160000	   19.796875
    9.2563	  0.000000	  0.033000	  1.010000	   -0.380000	   -0.100000	    0.250000	   19.808594
    9.2663	  0.001500	  0.033000	  1.007500	   -0.390000	   -0.250000	    0.310000	   19.796875
    9.2763	  0.003000	  0.033500	  1.011000	   -0.430000	   -0.280000	    0.260000	   19.812500
    9.2863	 -0.001000	  0.033000	  1.009500	   -0.330000	   -0.120000	    0.200000	   19.828125
    9.2963	 -0.000500	  0.034000	  1.009000	   -0.560000	   -0.190000	    0.290000	   19.800781
    9.3063	  0.002000	  0.033500	  1.009500	   -0.340000	   -0.190000	    0.240000	   19.824219
    9.3163	  0.001000	  0.033000	  1.011000	   -0.400000	   -0.310000	    0.350000	   19.816406
    9.3264	 -0.002500	  0.033000	  1.009500	   -0.540000	   -0.170000	    0.300000	   19.804688
    9.3363	  0.001000	  0.035000	  1.010500	   -0.480000	   -0.110000	    0.210000	   19.808594
    9.3463	  0.002500	  0.034000	  1.011000	   -0.460000	   -0.200000	    0.310000	   19.804688
    9.3563	  0.000000	  0.035000	  1.008500	   -0.360000	   -0.180000	    0.240000	   19.808594
    9.3663	  0.001000	  0.034000	  1.010000	   -0.480000	   -0.140000	    0.220000	   19.792969
    9.3763	  0.003500	  0.035000	  1.010500	   -0.440000	   -0.180000	    0.250000	   19.781250
    9.3863	  0.001500	  0.035500	  1.009000	   -0.470000	   -0.120000	    0.220000	   19.796875
    9.3963	  0.002000	  0.034500	  1.009000	   -0.470000	   -0.190000	    0.280000	   19.796875
    9.4063	  0.003500	  0.034500	  1.011000	   -0.490000	   -0.160000	    0.300000	   19.796875
    9.4163	  0.002000	  0.034000	  1.009000	   -0.450000	   -0.160000	    0.210000	   19.796875
    9.4264	  0.000500	  0.034000	  1.009000	   -0.470000	   -0.120000	    0.150000	   19.832031
    9.4363	  0.002000	  0.034500	  1.010500	   -0.270000	   -0.040000	    0.200000	   19.824219
    9.4463	  0.001000	  0.033000	  1.010000	   -0.360000	   -0.200000	    0.220000	   19.796875
    9.4563	 -0.001000	  0.034000	  1.011000	   -0.420000	   -0.070000	    0.140000	   19.820313
    9.4663	  0.000000	  0.034000	  1.009000	   -0.360000	   -0.130000	    0.120000	   19.812500
    9.4763	  0.000500	  0.033000	  1.009500	   -0.440000	   -0.160000	    0.190000	   19.816406
    9.4863	 -0.000500	  0.032500	  1.010500	   -0.480000	   -0.140000	    0.230000	   19.800781
    9.4963	 -0.000500	  0.033000	  1.010500	   -0.490000	   -0.150000	    0.220000	   19.796875
    9.5063	 -0.000500	  0.032500	  1.009000	   -0.460000	   -0.040000	    0.270000	   19.789063
    9.5163	  0.000000	  0.033000	  1.009500	   -0.410000	   -0.260000	    0.270000	   19.816406
    9.5263	 -0.001500	  0.033500	  1.010000	   -0.510000	   -0.050000	    0.260000	   19.839844
    9.5363	 -0.001000	  0.033000	  1.008000	   -0.410000	   -0.010000	    0.270000	   19.812500
    9.5463	 -0.001000	  0.033000	  1.009000	   -0.340000	   -0.120000	    0.320000	   19.804688
    9.5563	 -0.003000	  0.033000	  1.008000	   -0.500000	   -0.110000	    0.300000	   19.816406
    9.5663	 -0.000500	  0.034500	  1.007500	   -0.490000	   -0.210000	    0.220000	   19.816406
    9.5767	  0.001000	  0.034000	  1.008500	   -0.510000	   -0.200000	    0.310000	   19.796875
    9.5863	  0.000500	  0.034000	  1.009000	   -0.340000	   -0.110000	    0.240000	   19.808594
    9.5963	  0.000000	  0.035000	  1.009000	   -0.490000	   -0.150000	    0.250000	   19.800781
    9.6063	  0.002000	  0.034500	  1.011000	   -0.480000	   -0.120000	    0.280000	   19.800781
    9.6163	  0.001500	  0.034500	  1.009500	   -0.470000	   -0.210000	    0.390000	   19.789063
    9.6264	 -0.000500	  0.034500	  1.009000	   -0.330000	   -0.050000	    0.220000	   19.808594
    9.6363	 -0.001500	  0.034000	  1.010500	   -0.370000	   -0.140000	    0.220000	   19.812500
    9.6463	 -0.002000	  0.033500	  1.010500	   -0.430000	   -0.130000	    0.260000	   19.796875
    9.6563	 -0.001500	  0.035000	  1.008500	   -0.400000	   -0.150000	    0.190000	   19.800781
    9.6663	 -0.000500	  0.034000	  1.009500	   -0.330000	   -0.140000	    0.190000	   19.820313
    9.6763	 -0.001000	  0.035000	  1.009000	   -0.380000	   -0.060000	    0.180000	   19.804688
    9.6863	 -0.001500	  0.034000	  1.009500	   -0.360000	   -0.160000	    0.230000	   19.773438
    9.6964	  0.000000	  0.035500	  1.009000	   -0.460000	   -0.230000	    0.120000	   19.789063
    9.7063	 -0.001000	  0.033500	  1.009500	   -0.420000	   -0.090000	    0.210000	   19.820313
    9.7163	 -0.000500	  0.034000	  1.009500	   -0.420000	   -0.240000	    0.190000	   19.816406
    9.7264	  0.000000	  0.034500	  1.008500	   -0.440000	   -0.320000	    0.290000	   19.828125
    9.7364	 -0.000500	  0.034000	  1.010500	   -0.430000	   -0.240000	    0.330000	   19.808594
    9.7463	 -0.000500	  0.033500	  1.010500	   -0.430000	   -0.180000	    0.220000	   19.808594
    9.7563	 -0.001000	  0.033500	  1.008500	   -0.430000	   -0.280000	    0.350000	   19.808594
    9.7664	  0.000000	  0.034500	  1.010500	   -0.540000	   -0.290000	    0.230000	   19.812500
    9.7764	 -0.000500	  0.034500	  1.010000	   -0.380000	   -0.240000	    0.280000	   19.804688
    9.7864	  0.000000	  0.033500	  1.008500	   -0.490000	   -0.340000	    0.280000	   19.812500
    9.7964	 -0.000500	  0.034000	  1.009000	   -0.390000	   -0.190000	    0.190000	   19.804688
    9.8064	  0.000000	  0.033500	  1.007500	   -0.350000	   -0.150000	    0.200000	   19.816406
    9.8164	  0.000500	  0.033000	  1.008000	   -0.410000	   -0.210000	    0.250000	   19.789063
    9.8264	 -0.001000	  0.033000	  1.008000	   -0.410000	   -0.300000	    0.190000	   19.812500
    9.8364	 -0.000500	  0.034000	  1.008000	   -0.440000	   -0.270000	    0.270000	   19.804688
    9.8464	 -0.000500	  0.034000	  1.009000	   -0.400000	   -0.300000	    0.260000	   19.816406
    9.8564	  0.000000	  0.034000	  1.007500	   -0.400000	   -0.250000	    0.190000	   19.816406
    9.8664	 -0.001500	  0.034000	  1.008500	   -0.400000	   -0.250000	    0.250000	   19.824219
    9.8764	 -0.001000	  0.034500	  1.010500	   -0.400000	   -0.260000	    0.310000	   19.812500
    9.8864	  0.000000	  0.033500	  1.009500	   -0.370000	   -0.240000	    0.330000	   19.792969
    9.8964	  0.000000	  0.034000	  1.009500	   -0.470000	   -0.300000	    0.410000	   19.792969
    9.9064	  0.000500	  0.034000	  1.009000	   -0.410000	   -0.280000	    0.190000	   19.824219
    9.9164	  0.002000	  0.034000	  1.009500	   -0.450000	   -0.230000	    0.200000	   19.804688
    9.9264	  0.002500	  0.034000	  1.007500	   -0.400000	   -0.290000	    0.230000	   19.792969
    9.9364	  0.001500	  0.033000	  1.009500	   -0.410000	   -0.290000	    0.300000	   19.804688
    9.9464	  0.002000	  0.034500	  1.009500	   -0.410000	   -0.470000	    0.350000	   19.824219
    9.9564	  0.003000	  0.033500	  1.010000	   -0.400000	   -0.270000	    0.300000	   19.835938
    9.9664	  0.002000	  0.034500	  1.010500	   -0.530000	   -0.250000	    0.210000	   19.800781
    9.9764	  0.002000	  0.033000	  1.010500	   -0.360000	   -0.280000	    0.330000	   19.789063
    9.9864	  0.002000	  0.033500	  1.011000	   -0.400000	   -0.280000	    0.380000	   19.820313
    9.9964	  0.001500	  0.033000	  1.011000	   -0.490000	   -0.210000	    0.250000	   19.812500
   10.0064	  0.002500	  0.033000	  1.010500	   -0.380000	   -0.260000	    0.240000	   19.796875
   10.0164	  0.003000	  0.034000	  1.009500	   -0.400000	   -0.170000	    0.220000	   19.808594
   10.0264	  0.001500	  0.033000	  1.009500	   -0.370000	   -0.150000	    0.140000	   19.785156
   10.0364	  0.003500	  0.034500	  1.011000	   -0.470000	   -0.170000	    0.210000	   19.808594
   10.0464	  0.004000	  0.033000	  1.010500	   -0.490000	   -0.270000	    0.280000	   19.812500
   10.0564	  0.003000	  0.034000	  1.010500	   -0.460000	   -0.360000	    0.330000	   19.820313
   10.0664	  0.003500	  0.033500	  1.011000	   -0.530000	   -0.210000	    0.210000	   19.828125
   10.0764	  0.003500	  0.034000	  1.011000	   -0.460000	   -0.180000	    0.290000	   19.824219
   10.0864	  0.002500	  0.033500	  1.012500	   -0.410000	   -0.240000	    0.190000	   19.816406
   10.0964	  0.004000	  0.033000	  1.010500	   -0.580000	   -0.040000	    0.240000	   19.820313
   10.1064	  0.002500	  0.035000	  1.011000	   -0.420000	   -0.300000	    0.240000	   19.820313
   10.1164	  0.003000	  0.032500	  1.010000	   -0.570000	   -0.170000	    0.220000	   19.820313
   10.1264	  0.002500	  0.033500	  1.011500	   -0.540000	   -0.150000	    0.280000	   19.820313
   10.1364	  0.003500	  0.033000	  1.011500	   -0.550000	   -0.060000	    0.290000	   19.832031
   10.1464	  0.002500	  0.034000	  1.011500	   -0.410000	   -0.080000	    0.240000	   19.835938
   10.1564	  0.003500	  0.033500	  1.010500	   -0.540000	   -0.190000	    0.310000	   19.816406
   10.1664	  0.003000	  0.033500	  1.010000	   -0.390000	   -0.020000	    0.240000	   19.796875
   10.1764	  0.002000	  0.033000	  1.011000	   -0.340000	   -0.140000	    0.260000	   19.804688
   10.1864	  0.003000	  0.033500	  1.009500	   -0.490000	    0.060000	    0.190000	   19.816406
   10.1964	  0.002000	  0.033500	  1.008500	   -0.420000	   -0.050000	    0.320000	   19.796875
   10.2064	  0.001500	  0.033500	  1.010000	   -0.490000	   -0.250000	    0.320000	   19.820313
   10.2164	  0.001000	  0.032500	  1.011000	   -0.460000	   -0.040000	    0.150000	   19.832031
   10.2264	  0.002500	  0.033500	  1.008500	   -0.360000	   -0.100000	    0.200000	   19.820313
   10.2364	  0.000500	  0.034500	  1.010000	   -0.450000	   -0.160000	    0.330000	   19.812500
   10.2464	  0.000500	  0.033500	  1.011000	   -0.470000	   -0.030000	    0.250000	   19.804688
   10.2564	  0.004000	  0.033500	  1.010000	   -0.400000	   -0.090000	    0.290000	   19.796875
   10.2664	  0.001000	  0.034500	  1.009500	   -0.460000	   -0.030000	    0.240000	   19.785156
   10.2764	  0.000000	  0.034000	  1.010500	   -0.310000	   -0.110000	    0.230000	   19.828125
   10.2864	  0.004000	  0.034000	  1.008500	   -0.550000	   -0.110000	    0.300000	   19.828125
   10.2964	  0.002500	  0.034000	  1.010000	   -0.430000	    0.050000	    0.260000	   19.816406
   10.3064	 -0.000500	  0.033000	  1.010000	   -0.420000	    0.000000	    0.230000	   19.835938
   10.3164	  0.001500	  0.033000	  1.010000	   -0.460000	   -0.120000	    0.250000	   19.832031
   10.3264	  0.002500	  0.032500	  1.010000	   -0.430000	   -0.090000	    0.190000	   19.808594
   10.3364	  0.000000	  0.035500	  1.010500	   -0.420000	   -0.030000	    0.360000	   19.804688
   10.3464	  0.000000	  0.034000	  1.009500	   -0.420000	   -0.040000	    0.250000	   19.816406
   10.3564	  0.000000	  0.033000	  1.011500	   -0.550000	   -0.120000	    0.290000	   19.816406
   10.3664	 -0.001000	  0.034500	  1.009000	   -0.400000	    0.080000	    0.210000	   19.789063
   10.3764	 -0.000500	  0.034500	  1.009000	   -0.520000	   -0.050000	    0.230000	   19.804688
   10.3864	  0.000000	  0.034000	  1.010000	   -0.480000	   -0.080000	    0.280000	   19.808594
   10.3964	 -0.001000	  0.034500	  1.007500	   -0.450000	   -0.040000	    0.180000	   19.820313
   10.4064	 -0.002000	  0.034500	  1.009000	   -0.330000	    0.050000	    0.270000	   19.832031
   10.4164	  0.000000	  0.034000	  1.008500	   -0.520000	   -0.190000	    0.250000	   19.839844
   10.4264	  0.001000	  0.033000	  1.007500	   -0.350000	    0.080000	    0.230000	   19.855469
   10.4364	 -0.001500	  0.032500	  1.009000	   -0.480000	   -0.050000	    0.200000	   19.839844
   10.4464	 -0.000500	  0.034000	  1.010000	   -0.350000	   -0.140000	    0.290000	   19.816406
   10.4564	 -0.000500	  0.033500	  1.007000	   -0.330000	   -0.190000	    0.220000	   19.808594
   10.4664	 -0.001500	  0.034500	  1.008500	   -0.400000	   -0.120000	    0.260000	   19.828125
   10.4764	  0.000000	  0.034500	  1.007500	   -0.520000	   -0.090000	    0.260000	   19.828125
   10.4864	 -0.000500	  0.034000	  1.007000	   -0.450000	   -0.180000	    0.180000	   19.800781
   10.4964	 -0.002000	  0.034000	  1.008500	   -0.410000	   -0.100000	    0.260000	   19.812500
   10.5064	 -0.001500	  0.035000	  1.007500	   -0.440000	   -0.140000	    0.350000	   19.828125
   10.5164	  0.000000	  0.035000	  1.009500	   -0.430000	   -0.220000	    0.220000	   19.832031
   10.5264	 -0.001500	  0.033500	  1.009000	   -0.440000	   -0.150000	    0.250000	   19.820313
   10.5364	 -0.001500	  0.034000	  1.008500	   -0.460000	   -0.140000	    0.120000	   19.824219
   10.5464	 -0.000500	  0.034000	  1.009000	   -0.510000	   -0.080000	    0.190000	   19.812500
   10.5564	 -0.001000	  0.033000	  1.010000	   -0.450000	   -0.170000	    0.220000	   19.824219
   10.5664	 -0.001500	  0.033000	  1.008000	   -0.370000	   -0.140000	    0.300000	   19.828125
   10.5768	 -0.000500	  0.033500	  1.009500	   -0.560000	   -0.180000	    0.260000	   19.824219
   10.5864	 -0.000500	  0.033500	  1.008000	   -0.450000	   -0.230000	    0.300000	   19.824219
   10.5964	  0.000000	  0.034500	  1.009500	   -0.540000	   -0.230000	    0.170000	   19.812500
   10.6064	  0.000500	  0.034000	  1.008500	   -0.470000	   -0.210000	    0.270000	   19.816406
   10.6164	  0.001500	  0.034500	  1.010000	   -0.400000	   -0.210000	    0.250000	   19.832031
   10.6265	  0.001000	  0.034000	  1.009000	   -0.450000	   -0.310000	    0.200000	   19.843750
   10.6364	  0.001000	  0.034000	  1.009000	   -0.340000	   -0.180000	    0.200000	   19.820313
   10.6464	  0.002000	  0.034000	  1.010000	   -0.400000	   -0.200000	    0.300000	   19.808594
   10.6564	  0.000500	  0.035500	  1.010000	   -0.450000	   -0.260000	    0.290000	   19.812500
   10.6664	  0.001000	  0.034000	  1.009500	   -0.420000	   -0.290000	    0.250000	   19.808594
   10.6764	  0.002000	  0.035000	  1.009500	   -0.540000	   -0.060000	    0.270000	   19.804688
   10.6864	  0.000500	  0.033500	  1.010500	   -0.410000	   -0.240000	    0.280000	   19.812500
   10.6964	  0.001000	  0.034500	  1.010500	   -0.360000	   -0.190000	    0.240000	   19.828125
   10.7064	  0.001000	  0.033500	  1.011500	   -0.540000	   -0.170000	    0.340000	   19.816406
   10.7164	  0.001000	  0.034000	  1.010000	   -0.460000	   -0.130000	    0.320000	   19.824219
   10.7265	  0.002000	  0.033000	  1.009000	   -0.530000	   -0.200000	    0.190000	   19.828125
   10.7364	  0.001000	  0.033500	  1.010000	   -0.430000	   -0.350000	    0.260000	   19.828125
   10.7464	  0.001500	  0.034000	  1.010500	   -0.400000	   -0.270000	    0.230000	   19.820313
   10.7564	  0.001500	  0.033500	  1.009500	   -0.400000	   -0.120000	    0.260000	   19.812500
   10.7664	  0.002000	  0.033500	  1.010500	   -0.550000	   -0.170000	    0.200000	   19.800781
   10.7764	  0.002000	  0.034500	  1.010000	   -0.470000	   -0.170000	    0.240000	   19.808594
   10.7864	  0.003000	  0.035000	  1.009500	   -0.370000	   -0.200000	    0.260000	   19.824219
   10.7964	  0.002500	  0.034000	  1.011500	   -0.380000	   -0.120000	    0.210000	   19.812500
   10.8064	  0.003000	  0.033500	  1.010000	   -0.410000	   -0.100000	    0.210000	   19.828125
   10.8164	  0.002000	  0.034500	  1.010500	   -0.430000	   -0.060000	    0.260000	   19.828125
   10.8265	  0.003000	  0.034500	  1.011000	   -0.520000	   -0.200000	    0.280000	   19.816406
   10.8364	  0.003500	  0.032500	  1.011000	   -0.340000	   -0.130000	    0.240000	   19.816406
   10.8464	  0.003500	  0.033000	  1.009500	   -0.440000	   -0.150000	    0.260000	   19.816406
   10.8564	  0.002000	  0.033000	  1.010000	   -0.500000	   -0.150000	    0.280000	   19.820313
   10.8664	  0.001500	  0.033000	  1.011000	   -0.420000	   -0.280000	    0.220000	   19.820313
   10.8764	  0.002000	  0.033000	  1.010000	   -0.480000	   -0.140000	    0.250000	   19.832031
   10.8864	  0.001500	  0.032000	  1.010000	   -0.440000	   -0.170000	    0.230000	   19.804688
   10.8964	  0.001500	  0.032000	  1.011000	   -0.520000	   -0.130000	    0.260000	   19.785156
   10.9064	  0.001500	  0.033500	  1.010000	   -0.480000	   -0.120000	    0.230000	   19.808594
   10.9164	  0.000500	  0.033500	  1.009500	   -0.550000	   -0.170000	    0.280000	   19.820313
   10.9265	  0.000500	  0.032500	  1.010500	   -0.500000	   -0.180000	    0.250000	   19.816406
   10.9364	  0.002000	  0.034500	  1.009500	   -0.480000	   -0.090000	    0.250000	   19.828125
   10.9464	  0.001000	  0.034000	  1.009000	   -0.320000	   -0.080000	    0.130000	   19.828125
   10.9564	  0.002000	  0.034500	  1.010000	   -0.510000	   -0.130000	    0.270000	   19.824219
   10.9664	  0.001000	  0.033500	  1.010000	   -0.490000	   -0.120000	    0.270000	   19.820313
   10.9764	  0.002000	  0.033500	  1.009500	   -0.460000	   -0.200000	    0.310000	   19.828125
   10.9864	  0.000000	  0.034500	  1.008000	   -0.550000	   -0.040000	    0.190000	   19.828125
   10.9964	  0.002000	  0.033000	  1.010000	   -0.560000	   -0.100000	    0.310000	   19.812500
   11.0064	  0.001000	  0.034000	  1.010000	   -0.360000	   -0.230000	    0.270000	   19.812500
   11.0164	  0.000000	  0.034500	  1.010000	   -0.440000	   -0.120000	    0.290000	   19.839844
   11.0265	  0.000000	  0.033000	  1.009500	   -0.490000	    0.020000	    0.160000	   19.824219
   11.0364	  0.001000	  0.034000	  1.009500	   -0.400000	   -0.050000	    0.220000	   19.812500
   11.0464	 -0.001000	  0.033000	  1.009000	   -0.580000	   -0.160000	    0.300000	   19.828125
   11.0564	 -0.000500	  0.034500	  1.010500	   -0.510000	   -0.250000	    0.240000	   19.835938
   11.0664	  0.000500	  0.034000	  1.009500	   -0.480000	   -0.130000	    0.260000	   19.855469
   11.0764	  0.000000	  0.034500	  1.008500	   -0.440000	   -0.220000	    0.260000	   19.847656
   11.0864	  0.000000	  0.033500	  1.009000	   -0.410000	    0.040000	    0.130000	   19.824219
   11.0964	  0.001000	  0.034500	  1.009500	   -0.520000	   -0.080000	    0.270000	   19.804688
   11.1064	  0.001000	  0.035000	  1.009000	   -0.520000	   -0.130000	    0.270000	   19.804688
   11.1164	  0.000500	  0.034000	  1.010000	   -0.510000	   -0.100000	    0.160000	   19.824219
   11.1265	  0.000000	  0.033500	  1.008500	   -0.330000	   -0.190000	    0.250000	   19.835938
   11.1364	  0.000000	  0.033500	  1.009500	   -0.540000	   -0.170000	    0.310000	   19.812500
   11.1464	  0.000500	  0.034500	  1.009500	   -0.580000	   -0.040000	    0.340000	   19.828125
   11.1564	 -0.000500	  0.034000	  1.010000	   -0.500000	   -0.160000	    0.360000	   19.835938
   11.1664	  0.000500	  0.033500	  1.009500	   -0.440000	   -0.160000	    0.220000	   19.804688
   11.1764	  0.001500	  0.034000	  1.008000	   -0.430000	   -0.140000	    0.330000	   19.828125
   11.1864	  0.000000	  0.034000	  1.009500	   -0.570000	   -0.180000	    0.250000	   19.832031
   11.1964	  0.000000	  0.034000	  1.010000	   -0.370000	   -0.030000	    0.200000	   19.832031
   11.2064	  0.000000	  0.033500	  1.009500	   -0.430000	   -0.160000	    0.280000	   19.808594
   11.2164	 -0.000500	  0.033000	  1.009500	   -0.410000	   -0.090000	    0.310000	   19.820313
   11.2265	 -0.001000	  0.034000	  1.009500	   -0.370000	   -0.180000	    0.300000	   19.835938
   11.2364	  0.000000	  0.033000	  1.009000	   -0.350000	   -0.030000	    0.140000	   19.812500
   11.2464	  0.001000	  0.033000	  1.009500	   -0.450000	   -0.190000	    0.140000	   19.828125
   11.2564	 -0.001000	  0.034000	  1.008500	   -0.470000	   -0.140000	    0.220000	   19.816406
   11.2664	 -0.001000	  0.034000	  1.009500	   -0.530000	   -0.170000	    0.350000	   19.832031
   11.2764	  0.000500	  0.034000	  1.010000	   -0.450000	   -0.130000	    0.240000	   19.851563
   11.2864	  0.000500	  0.034500	  1.009000	   -0.500000	   -0.120000	    0.200000	   19.820313
   11.2964	  0.000000	  0.034500	  1.007500	   -0.490000	   -0.230000	    0.130000	   19.820313
   11.3064	  0.000500	  0.034500	  1.010500	   -0.460000	   -0.230000	    0.200000	   19.820313
   11.3164	  0.001000	  0.033500	  1.008500	   -0.520000	   -0.190000	    0.230000	   19.824219
   11.3265	 -0.001000	  0.035500	  1.010000	   -0.430000	   -0.260000	    0.310000	   19.820313
   11.3364	  0.000500	  0.035500	  1.010000	   -0.480000	   -0.200000	    0.280000	   19.808594
   11.3464	  0.001500	  0.034500	  1.009000	   -0.400000	   -0.150000	    0.310000	   19.800781
   11.3564	 -0.001000	  0.035000	  1.010500	   -0.470000	   -0.160000	    0.250000	   19.785156
   11.3664	  0.000000	  0.033000	  1.010000	   -0.530000	   -0.200000	    0.200000	   19.796875
   11.3764	  0.000500	  0.034500	  1.009000	   -0.410000	   -0.250000	    0.320000	   19.808594
   11.3864	  0.000000	  0.033500	  1.010500	   -0.310000	   -0.120000	    0.230000	   19.835938
   11.3964	  0.000000	  0.034000	  1.010000	   -0.390000	   -0.200000	    0.210000	   19.832031
   11.4064	  0.000500	  0.033500	  1.010000	   -0.420000	   -0.140000	    0.320000	   19.832031
   11.4164	  0.001000	  0.034500	  1.010000	   -0.530000	   -0.230000	    0.300000	   19.796875
   11.4265	  0.000500	  0.033500	  1.009000	   -0.520000	   -0.190000	    0.190000	   19.824219
   11.4364	  0.001000	  0.034000	  1.010000	   -0.430000	   -0.190000	    0.140000	   19.828125
   11.4465	  0.002000	  0.032500	  1.010000	   -0.500000	   -0.210000	    0.210000	   19.824219
   11.4564	  0.000500	  0.034000	  1.009000	   -0.410000	   -0.150000	    0.170000	   19.816406
   11.4664	  0.000500	  0.034000	  1.010500	   -0.350000	   -0.070000	    0.110000	   19.820313
   11.4764	  0.002000	  0.035000	  1.010500	   -0.440000	   -0.090000	    0.240000	   19.832031
   11.4864	  0.001000	  0.034500	  1.009000	   -0.470000	   -0.110000	    0.290000	   19.820313
   11.4965	  0.000000	  0.034000	  1.010000	   -0.370000	   -0.130000	    0.310000	   19.843750
   11.5065	  0.001500	  0.034500	  1.009000	   -0.350000	   -0.200000	    0.170000	   19.843750
   11.5164	  0.001000	  0.033500	  1.009000	   -0.460000	   -0.120000	    0.230000	   19.851563
   11.5265	  0.001500	  0.034000	  1.009500	   -0.430000	   -0.180000	    0.250000	   19.832031
   11.5364	  0.001500	  0.032500	  1.009000	   -0.590000	   -0.210000	    0.190000	   19.808594
   11.5464	  0.001500	  0.033500	  1.009500	   -0.480000	   -0.170000	    0.200000	   19.812500
   11.5565	  0.000500	  0.033500	  1.008500	   -0.390000	   -0.140000	    0.230000	   19.824219
   11.5665	  0.000500	  0.033500	  1.008500	   -0.530000	   -0.120000	    0.230000	   19.820313
   11.5768	  0.001000	  0.033000	  1.008500	   -0.420000	   -0.150000	    0.270000	   19.824219
   11.5865	 -0.000500	  0.033500	  1.009500	   -0.500000	   -0.220000	    0.300000	   19.812500
   11.5965	  0.000000	  0.033000	  1.008000	   -0.500000	   -0.150000	    0.220000	   19.804688
   11.6065	  0.000500	  0.034000	  1.008000	   -0.360000	   -0.140000	    0.260000	   19.808594
   11.6165	  0.000000	  0.034000	  1.009000	   -0.610000	   -0.140000	    0.310000	   19.824219
   11.6265	  0.000500	  0.033500	  1.010500	   -0.510000	   -0.060000	    0.170000	   19.828125
   11.6365	  0.002500	  0.034000	  1.009000	   -0.380000	   -0.220000	    0.250000	   19.824219
   11.6465	  0.000500	  0.032500	  1.011000	   -0.450000	   -0.140000	    0.290000	   19.808594
   11.6565	  0.001500	  0.034500	  1.008500	   -0.510000	   -0.200000	    0.230000	   19.824219
   11.6665	  0.001000	  0.034000	  1.010500	   -0.540000	   -0.110000	    0.150000	   19.824219
   11.6765	  0.001000	  0.034000	  1.010000	   -0.450000	   -0.040000	    0.060000	   19.835938
   11.6865	  0.001000	  0.034000	  1.012000	   -0.450000	   -0.130000	    0.230000	   19.812500
   11.6965	  0.001500	  0.034000	  1.010000	   -0.510000	   -0.070000	    0.280000	   19.820313
   11.7065	  0.002500	  0.035000	  1.010500	   -0.360000	   -0.110000	    0.300000	   19.812500
   11.7165	  0.001000	  0.034000	  1.010500	   -0.410000	   -0.140000	    0.190000	   19.832031
   11.7265	  0.001000	  0.034000	  1.011000	   -0.400000	   -0.110000	    0.330000	   19.828125
   11.7365	  0.001500	  0.034000	  1.011000	   -0.420000	   -0.230000	    0.320000	   19.832031
   11.7465	  0.000500	  0.034500	  1.010000	   -0.270000	   -0.110000	    0.210000	   19.828125
   11.7565	 -0.001000	  0.034000	  1.009500	   -0.480000	   -0.170000	    0.240000	   19.835938
   11.7665	  0.001000	  0.034500	  1.010000	   -0.350000	   -0.030000	    0.190000	   19.816406
   11.7765	  0.000000	  0.034500	  1.009500	   -0.500000	   -0.210000	    0.200000	   19.824219
   11.7865	 -0.001000	  0.034000	  1.009500	   -0.420000	   -0.140000	    0.280000	   19.808594
   11.7965	 -0.001000	  0.034500	  1.010000	   -0.490000	   -0.080000	    0.290000	   19.832031
   11.8065	  0.000000	  0.034000	  1.008500	   -0.430000	   -0.040000	    0.250000	   19.832031
   11.8165	  0.000000	  0.035000	  1.009000	   -0.520000	   -0.240000	    0.260000	   19.796875
   11.8265	  0.001000	  0.034500	  1.008000	   -0.440000	   -0.180000	    0.190000	   19.808594
   11.8365	  0.000500	  0.033500	  1.009500	   -0.550000	   -0.210000	    0.320000	   19.804688
   11.8465	  0.001000	  0.034500	  1.008000	   -0.390000	   -0.190000	    0.400000	   19.832031
   11.8565	  0.001000	  0.034000	  1.009000	   -0.420000	   -0.140000	    0.240000	   19.812500
   11.8665	  0.001000	  0.034500	  1.008500	   -0.350000	   -0.060000	    0.240000	   19.835938
   11.8765	  0.001000	  0.033000	  1.010000	   -0.420000	   -0.130000	    0.380000	   19.843750
   11.8865	  0.000500	  0.034000	  1.009500	   -0.460000	   -0.120000	    0.260000	   19.847656
   11.8965	  0.000500	  0.032500	  1.009500	   -0.480000	   -0.130000	    0.340000	   19.847656
   11.9065	  0.001500	  0.033500	  1.009500	   -0.440000	   -0.170000	    0.130000	   19.851563
   11.9165	  0.000000	  0.032500	  1.010500	   -0.430000	   -0.150000	    0.240000	   19.835938
   11.9265	  0.000000	  0.031500	  1.010000	   -0.470000	   -0.150000	    0.290000	   19.816406
   11.9365	  0.000000	  0.033000	  1.010000	   -0.550000	   -0.220000	    0.220000	   19.835938
   11.9465	 -0.000500	  0.032500	  1.009500	   -0.590000	   -0.180000	    0.230000	   19.812500
   11.9565	  0.000500	  0.031500	  1.010000	   -0.410000	   -0.050000	    0.170000	   19.800781
   11.9665	  0.001000	  0.032500	  1.010000	   -0.450000	   -0.240000	    0.240000	   19.812500
   11.9765	  0.001000	  0.033000	  1.009500	   -0.450000	   -0.140000	    0.290000	   19.832031
   11.9865	  0.000500	  0.032500	  1.009000	   -0.400000	   -0.180000	    0.290000	   19.828125
   11.9965	  0.001000	  0.035000	  1.009500	   -0.530000	   -0.200000	    0.180000	   19.828125
   12.0065	  0.001500	  0.034500	  1.010000	   -0.480000	   -0.080000	    0.290000	   19.812500
   12.0165	  0.002000	  0.035000	  1.009000	   -0.460000	   -0.090000	    0.220000	   19.828125
   12.0265	  0.000500	  0.034000	  1.008000	   -0.610000	   -0.140000	    0.290000	   19.847656
   12.0365	  0.000500	  0.035000	  1.008000	   -0.530000	   -0.300000	    0.250000	   19.812500
   12.0465	  0.001000	  0.034500	  1.009500	   -0.420000	   -0.140000	    0.170000	   19.812500
   12.0565	  0.001000	  0.034500	  1.008500	   -0.380000	   -0.220000	    0.130000	   19.820313
   12.0665	  0.001000	  0.035000	  1.009500	   -0.440000	   -0.070000	    0.340000	   19.835938
   12.0765	  0.001000	  0.034500	  1.010000	   -0.450000	   -0.240000	    0.200000	   19.832031
   12.0865	  0.000000	  0.033000	  1.009500	   -0.550000	   -0.180000	    0.340000	   19.824219
   12.0965	  0.000000	  0.034000	  1.010000	   -0.500000	   -0.140000	    0.230000	   19.816406
   12.1065	  0.000500	  0.033500	  1.010500	   -0.460000	   -0.170000	    0.310000	   19.832031
   12.1165	  0.001000	  0.034500	  1.010000	   -0.410000	   -0.360000	    0.240000	   19.828125
   12.1265	 -0.000500	  0.033500	  1.009000	   -0.550000	   -0.140000	    0.260000	   19.824219
   12.1365	  0.001000	  0.032500	  1.012000	   -0.460000	   -0.140000	    0.250000	   19.835938
   12.1465	  0.000000	  0.034500	  1.011000	   -0.430000	   -0.170000	    0.300000	   19.839844
   12.1565	  0.000000	  0.034000	  1.010000	   -0.460000	   -0.170000	    0.310000	   19.828125
   12.1665	  0.000500	  0.033500	  1.010500	   -0.440000	   -0.220000	    0.350000	   19.839844
   12.1765	  0.001000	  0.033500	  1.011000	   -0.400000	   -0.160000	    0.310000	   19.828125
   12.1865	  0.000500	  0.034000	  1.010500	   -0.510000	   -0.130000	    0.300000	   19.816406
   12.1965	  0.000500	  0.033500	  1.009500	   -0.590000	   -0.330000	    0.250000	   19.855469
   12.2065	  0.001000	  0.033500	  1.011000	   -0.410000	   -0.200000	    0.220000	   19.843750
   12.2165	  0.001000	  0.035000	  1.009000	   -0.510000	   -0.180000	    0.290000	   19.835938
   12.2265	 -0.000500	  0.033000	  1.010000	   -0.460000	   -0.170000	    0.230000	   19.843750
   12.2365	  0.001500	  0.034000	  1.010000	   -0.480000	   -0.290000	    0.270000	   19.855469
   12.2465	  0.000500	  0.034000	  1.009500	   -0.340000	   -0.170000	    0.150000	   19.820313
   12.2565	  0.000500	  0.034000	  1.008500	   -0.390000	   -0.310000	    0.250000	   19.828125
   12.2665	  0.000500	  0.033000	  1.009500	   -0.550000	   -0.030000	    0.290000	   19.847656
   12.2765	  0.000500	  0.033000	  1.009500	   -0.390000	   -0.130000	    0.270000	   19.828125
   12.2865	  0.001000	  0.033500	  1.008500	   -0.400000	   -0.260000	    0.340000	   19.839844
   12.2965	  0.000500	  0.034000	  1.009500	   -0.430000	   -0.130000	    0.220000	   19.824219
   12.3065	  0.000500	  0.033500	  1.009000	   -0.460000	   -0.220000	    0.180000	   19.816406
   12.3165	  0.000500	  0.034000	  1.008000	   -0.510000	   -0.100000	    0.160000	   19.847656
   12.3265	  0.001000	  0.034000	  1.009500	   -0.440000	   -0.130000	    0.190000	   19.863281
   12.3365	  0.000000	  0.034500	  1.009000	   -0.440000	   -0.140000	    0.250000	   19.839844
   12.3465	  0.000500	  0.033500	  1.007500	   -0.510000	   -0.250000	    0.240000	   19.808594
   12.3565	  0.000500	  0.033500	  1.009000	   -0.400000	   -0.180000	    0.260000	   19.835938
   12.3665	  0.000500	  0.033500	  1.009500	   -0.520000	   -0.140000	    0.260000	   19.820313
   12.3765	  0.001500	  0.034000	  1.008500	   -0.480000	   -0.140000	    0.150000	   19.820313
   12.3865	  0.001000	  0.033000	  1.010500	   -0.520000	   -0.160000	    0.300000	   19.828125
   12.3965	  0.000500	  0.033000	  1.010500	   -0.380000	   -0.090000	    0.250000	   19.847656
   12.4065	  0.001000	  0.033000	  1.010000	   -0.440000	   -0.160000	    0.290000	   19.855469
   12.4165	  0.000500	  0.034500	  1.010500	   -0.490000	   -0.100000	    0.330000	   19.828125
   12.4266	  0.000000	  0.034000	  1.010500	   -0.470000	   -0.310000	    0.230000	   19.832031
   12.4365	  0.001000	  0.033000	  1.011000	   -0.360000	   -0.350000	    0.220000	   19.816406
   12.4465	  0.000500	  0.034000	  1.011000	   -0.400000	   -0.270000	    0.210000	   19.796875
   12.4565	  0.000500	  0.033000	  1.009500	   -0.440000	   -0.050000	    0.290000	   19.820313
   12.4665	  0.001000	  0.034500	  1.009500	   -0.380000	   -0.150000	    0.270000	   19.832031
   12.4765	  0.000500	  0.033000	  1.010000	   -0.390000	   -0.110000	    0.190000	   19.835938
   12.4865	  0.001000	  0.035000	  1.010000	   -0.390000	   -0.160000	    0.230000	   19.804688
   12.4965	  0.001000	  0.033500	  1.010500	   -0.340000	    0.030000	    0.170000	   19.820313
   12.5065	  0.000000	  0.033000	  1.010000	   -0.530000	   -0.200000	    0.370000	   19.828125
   12.5165	  0.001000	  0.035000	  1.008500	   -0.440000	    0.010000	    0.220000	   19.820313
   12.5265	  0.001500	  0.034500	  1.008000	   -0.460000	    0.000000	    0.230000	   19.824219
   12.5365	  0.000000	  0.033000	  1.010000	   -0.350000	   -0.120000	    0.130000	   19.828125
   12.5465	  0.001000	  0.034000	  1.010500	   -0.440000	   -0.070000	    0.190000	   19.828125
   12.5565	  0.000500	  0.033500	  1.009500	   -0.480000	   -0.140000	    0.230000	   19.851563
   12.5665	  0.001000	  0.035000	  1.010000	   -0.540000	   -0.160000	    0.310000	   19.835938
   12.5769	  0.000500	  0.034000	  1.008500	   -0.450000	   -0.070000	    0.170000	   19.851563
   12.5865	  0.000500	  0.034000	  1.009000	   -0.420000	   -0.050000	    0.170000	   19.835938
   12.5965	  0.001000	  0.033500	  1.010000	   -0.480000	   -0.080000	    0.260000	   19.828125
   12.6065	  0.001500	  0.034500	  1.010000	   -0.470000	   -0.040000	    0.280000	   19.835938
   12.6165	 -0.000500	  0.034500	  1.008500	   -0.490000	   -0.270000	    0.250000	   19.812500
   12.6266	  0.000000	  0.033500	  1.010000	   -0.440000	   -0.270000	    0.250000	   19.824219
   12.6365	  0.000500	  0.033500	  1.011500	   -0.490000	   -0.120000	    0.190000	   19.843750
   12.6465	  0.000500	  0.034000	  1.009000	   -0.540000	   -0.270000	    0.330000	   19.843750
