ï»¿Time_s    	AccX_g    	AccY_g    	AccZ_g    	GyroX_degs  	GyroY_degs  	GyroZ_degs  	IMU_Temperature
    0.0735	  0.006500	  0.049500	  0.982000	    0.400000	   -0.760000	    0.240000	   16.910156
    0.0760	  0.001500	  0.030500	  1.012000	    0.120000	   -0.640000	    0.040000	   16.898438
    0.0785	 -0.011000	  0.054500	  1.001000	    0.610000	   -0.190000	    0.200000	   16.914063
    0.0817	  0.005000	  0.037000	  0.974500	   -0.090000	    0.090000	   -0.070000	   16.906250
    0.0917	  0.002500	  0.051500	  0.989000	   -0.100000	   -0.150000	    0.000000	   16.917969
    0.1017	  0.014000	  0.032500	  0.997000	   -0.240000	   -0.180000	   -0.160000	   16.914063
    0.1117	  0.011000	  0.053000	  0.987000	    0.410000	   -0.200000	    0.060000	   16.898438
    0.1217	  0.012000	  0.032000	  0.989000	   -0.180000	   -0.160000	   -0.020000	   16.910156
    0.1317	 -0.008500	  0.050500	  0.983000	   -0.200000	   -0.430000	    0.120000	   16.933594
    0.1417	 -0.007000	  0.033000	  1.010500	   -0.550000	   -0.150000	   -0.100000	   16.949219
    0.1517	  0.000000	  0.050500	  0.992000	    0.040000	    0.180000	    0.080000	   16.945313
    0.1617	  0.019500	  0.030000	  0.974000	   -0.290000	    0.040000	   -0.080000	   16.917969
    0.1717	  0.009500	  0.050000	  0.977500	    0.300000	   -0.570000	    0.160000	   16.933594
    0.1817	  0.008000	  0.032500	  1.015000	   -0.040000	   -0.440000	   -0.060000	   16.929688
    0.1917	 -0.003500	  0.056500	  0.983500	    0.420000	   -0.170000	   -0.020000	   16.921875
    0.2017	  0.010000	  0.035000	  0.980000	   -0.140000	   -0.100000	    0.000000	   16.914063
    0.2117	  0.005000	  0.052000	  0.984000	   -0.020000	   -0.130000	    0.100000	   16.906250
    0.2217	  0.012000	  0.031500	  1.008000	   -0.350000	   -0.240000	   -0.080000	   16.906250
    0.2317	  0.005000	  0.052500	  1.003000	    0.210000	    0.120000	    0.010000	   16.929688
    0.2417	  0.008000	  0.033500	  0.973500	   -0.250000	    0.050000	   -0.090000	   16.933594
    0.2517	 -0.006000	  0.052500	  0.980000	   -0.180000	   -0.550000	    0.010000	   16.929688
    0.2617	  0.000000	  0.033000	  1.033000	   -0.370000	    0.020000	   -0.010000	   16.917969
    0.2717	  0.009000	  0.057500	  0.987500	   -0.320000	    0.660000	    0.050000	   16.906250
    0.2817	  0.018500	  0.032500	  0.981500	   -1.040000	    0.560000	   -0.200000	   16.890625
    0.2917	  0.007500	  0.051500	  0.995500	   -0.890000	    0.260000	   -0.060000	   16.921875
    0.3017	 -0.005000	  0.029500	  0.981500	   -0.890000	    0.430000	   -0.080000	   16.929688
    0.3117	 -0.011000	  0.048500	  0.976000	    0.130000	    0.360000	   -0.020000	   16.902344
    0.3217	  0.000500	  0.027500	  0.996000	   -0.310000	    0.490000	   -0.130000	   16.902344
    0.3317	  0.008000	  0.053500	  0.971500	    0.020000	    0.310000	    0.070000	   16.898438
    0.3417	  0.015500	  0.028500	  1.016500	   -0.220000	    0.020000	   -0.100000	   16.921875
    0.3517	  0.016000	  0.056000	  1.001000	    0.100000	    0.480000	    0.000000	   16.949219
    0.3617	  0.014500	  0.031000	  0.947000	   -0.040000	    0.070000	   -0.030000	   16.929688
    0.3717	  0.003500	  0.057000	  1.008500	   -0.120000	   -0.420000	    0.070000	   16.925781
    0.3817	  0.004000	  0.026000	  1.002000	   -0.450000	    0.020000	   -0.090000	   16.929688
    0.3917	  0.007000	  0.056500	  0.968000	    0.090000	    0.230000	    0.050000	   16.910156
    0.4017	  0.014500	  0.025000	  0.986000	   -0.340000	   -0.210000	   -0.050000	   16.937500
    0.4117	 -0.000500	  0.053500	  0.994000	   -0.110000	   -0.340000	    0.110000	   16.937500
    0.4217	 -0.003500	  0.029000	  1.007500	   -0.210000	   -0.120000	   -0.140000	   16.929688
    0.4317	 -0.004500	  0.060000	  1.002500	    0.010000	    0.370000	    0.040000	   16.933594
    0.4417	  0.007500	  0.025500	  0.956000	   -0.210000	    0.140000	   -0.070000	   16.906250
    0.4517	  0.006000	  0.058500	  1.001500	   -0.020000	   -0.170000	    0.080000	   16.906250
    0.4617	  0.013000	  0.021500	  1.006000	   -0.280000	   -0.110000	   -0.190000	   16.910156
    0.4717	  0.009000	  0.058000	  0.974500	    0.100000	    0.140000	   -0.040000	   16.910156
    0.4817	  0.009000	  0.025000	  0.967000	   -0.010000	   -0.120000	   -0.070000	   16.921875
    0.4917	 -0.002500	  0.057500	  1.007000	   -0.260000	   -0.470000	    0.020000	   16.960938
    0.5017	  0.001000	  0.024000	  0.994000	   -0.080000	    0.060000	   -0.090000	   16.960938
    0.5117	  0.000000	  0.059500	  0.991000	    0.090000	    0.270000	    0.050000	   16.949219
    0.5217	  0.009500	  0.025000	  0.974000	   -0.180000	    0.010000	    0.090000	   16.917969
    0.5317	 -0.001000	  0.060000	  0.999500	   -0.150000	   -0.200000	    0.040000	   16.945313
    0.5417	 -0.002500	  0.025000	  1.010500	   -0.350000	    0.110000	   -0.010000	   16.945313
    0.5517	  0.003500	  0.061000	  0.981500	    0.020000	    0.440000	    0.010000	   16.941406
    0.5617	  0.013500	  0.025000	  0.958000	   -0.160000	    0.080000	    0.000000	   16.937500
    0.5717	  0.006000	  0.059000	  1.011500	   -0.170000	   -0.310000	   -0.050000	   16.949219
    0.5817	  0.006000	  0.027500	  0.992000	   -0.200000	   -0.070000	    0.100000	   16.941406
    0.5917	  0.002000	  0.059500	  0.983500	    0.160000	    0.260000	    0.080000	   16.937500
    0.6017	  0.006500	  0.024500	  0.973500	   -0.120000	   -0.100000	    0.000000	   16.902344
    0.6117	 -0.001000	  0.060500	  1.003500	   -0.120000	   -0.230000	    0.010000	   16.917969
    0.6217	  0.003500	  0.023000	  1.010500	   -0.300000	    0.000000	    0.000000	   16.937500
    0.6317	  0.007500	  0.061500	  0.992000	    0.030000	    0.580000	    0.050000	   16.941406
    0.6417	  0.013500	  0.021500	  0.955000	   -0.250000	   -0.190000	   -0.070000	   16.937500
    0.6517	  0.000500	  0.061500	  1.015500	   -0.320000	   -0.350000	    0.070000	   16.925781
    0.6617	  0.003000	  0.023500	  0.995000	   -0.160000	    0.060000	    0.080000	   16.945313
    0.6717	 -0.002500	  0.062500	  0.979000	   -0.040000	    0.190000	   -0.020000	   16.929688
    0.6818	  0.008000	  0.022500	  0.969500	   -0.050000	   -0.010000	   -0.020000	   16.929688
    0.6917	  0.000500	  0.058500	  1.007500	   -0.110000	   -0.060000	   -0.010000	   16.921875
    0.7017	  0.002500	  0.022500	  0.997500	   -0.140000	    0.060000	   -0.080000	   16.941406
    0.7117	  0.003500	  0.059500	  0.998000	    0.060000	    0.300000	    0.060000	   16.957031
    0.7217	  0.010000	  0.023500	  0.961500	   -0.020000	   -0.090000	    0.000000	   16.937500
    0.7317	  0.000500	  0.060000	  1.005000	   -0.290000	   -0.220000	    0.040000	   16.925781
    0.7417	  0.007000	  0.024500	  1.000000	    0.010000	    0.200000	   -0.070000	   16.933594
    0.7517	  0.005000	  0.059500	  0.976000	    0.020000	    0.270000	    0.010000	   16.937500
    0.7617	  0.011000	  0.024000	  0.960500	   -0.120000	   -0.330000	    0.060000	   16.945313
    0.7717	 -0.002000	  0.059000	  1.010000	   -0.190000	   -0.300000	    0.000000	   16.949219
    0.7818	  0.000500	  0.021500	  0.996500	   -0.190000	   -0.080000	   -0.080000	   16.933594
    0.7917	  0.000500	  0.059500	  0.990500	   -0.080000	    0.190000	    0.050000	   16.941406
    0.8017	  0.007500	  0.023500	  0.974000	   -0.060000	   -0.130000	    0.040000	   16.957031
    0.8117	 -0.001500	  0.060500	  1.011000	   -0.320000	   -0.250000	    0.010000	   16.937500
    0.8217	  0.012500	  0.027000	  1.000500	    0.130000	    0.160000	   -0.040000	   16.953125
    0.8317	  0.004000	  0.064000	  0.986000	   -0.030000	    0.360000	   -0.070000	   16.953125
    0.8417	  0.014000	  0.024500	  0.955000	    0.070000	   -0.150000	   -0.040000	   16.941406
    0.8517	  0.000500	  0.060000	  1.017000	   -0.270000	   -0.200000	    0.020000	   16.937500
    0.8617	  0.005000	  0.022500	  0.987500	   -0.160000	    0.090000	   -0.090000	   16.941406
    0.8717	  0.006000	  0.059500	  0.976500	   -0.070000	    0.180000	   -0.150000	   16.968750
    0.8818	  0.011500	  0.023000	  0.975500	    0.050000	   -0.150000	   -0.080000	   16.941406
    0.8917	 -0.005500	  0.059000	  1.014000	   -0.410000	   -0.310000	   -0.030000	   16.960938
    0.9017	 -0.001500	  0.029500	  1.001000	    0.020000	   -0.020000	   -0.060000	   16.976563
    0.9117	  0.001500	  0.058500	  0.995000	    0.100000	    0.610000	   -0.070000	   16.968750
    0.9217	  0.008500	  0.027500	  0.953000	    0.090000	   -0.070000	    0.000000	   16.953125
    0.9317	  0.004500	  0.058000	  1.010500	   -0.410000	   -0.170000	    0.010000	   16.945313
    0.9417	  0.005000	  0.023500	  1.000500	   -0.100000	    0.070000	   -0.040000	   16.957031
    0.9518	  0.008000	  0.055500	  0.970500	   -0.210000	    0.210000	    0.080000	   16.957031
    0.9617	  0.008500	  0.027000	  0.965000	    0.140000	   -0.160000	   -0.040000	   16.945313
    0.9717	  0.000500	  0.053000	  1.013000	   -0.400000	   -0.220000	    0.040000	   16.945313
    0.9817	 -0.000500	  0.030000	  0.996000	   -0.110000	   -0.060000	    0.070000	   16.953125
    0.9917	  0.004500	  0.060500	  0.994000	   -0.130000	    0.330000	   -0.080000	   16.941406
    1.0017	  0.004500	  0.022500	  0.968500	    0.020000	   -0.170000	    0.110000	   16.917969
    1.0119	  0.000000	  0.059000	  1.009000	   -0.300000	   -0.250000	    0.000000	   16.953125
    1.0217	  0.003500	  0.025500	  0.999000	    0.090000	    0.160000	   -0.030000	   16.949219
    1.0317	  0.005500	  0.059500	  0.983000	   -0.240000	    0.240000	   -0.070000	   16.949219
    1.0417	  0.008000	  0.024500	  0.958000	   -0.090000	   -0.140000	   -0.020000	   16.949219
    1.0518	 -0.001500	  0.060000	  1.020500	   -0.330000	   -0.210000	   -0.050000	   16.937500
    1.0618	  0.002000	  0.027000	  0.990000	   -0.180000	   -0.030000	   -0.060000	   16.964844
    1.0717	  0.006500	  0.061000	  0.987000	   -0.100000	    0.330000	   -0.090000	   16.953125
    1.0818	  0.012500	  0.025000	  0.972500	   -0.120000	   -0.220000	    0.030000	   16.976563
    1.0918	  0.000000	  0.055500	  1.008000	   -0.410000	   -0.100000	   -0.020000	   16.953125
    1.1018	  0.013500	  0.026000	  1.000000	    0.050000	    0.180000	   -0.080000	   16.941406
    1.1118	  0.008500	  0.059000	  0.980500	   -0.050000	    0.330000	   -0.100000	   16.945313
    1.1218	  0.015000	  0.027500	  0.961500	   -0.060000	   -0.330000	    0.010000	   16.960938
    1.1318	 -0.000500	  0.057000	  1.022500	   -0.250000	   -0.260000	   -0.010000	   16.984375
    1.1418	 -0.002000	  0.030000	  0.991500	   -0.070000	   -0.080000	   -0.070000	   16.953125
    1.1518	  0.000500	  0.055000	  0.979000	   -0.020000	    0.110000	   -0.110000	   16.953125
    1.1618	  0.014000	  0.027000	  0.966500	    0.020000	   -0.230000	   -0.020000	   16.957031
    1.1718	 -0.013000	  0.053500	  1.019000	   -0.380000	   -0.130000	   -0.040000	   16.949219
    1.1818	  0.003500	  0.023000	  1.000500	    0.030000	    0.160000	   -0.030000	   16.945313
    1.1918	  0.003000	  0.055000	  0.983000	    0.010000	    0.400000	   -0.050000	   16.945313
    1.2018	  0.008500	  0.025000	  0.965000	   -0.020000	   -0.110000	    0.140000	   16.945313
    1.2118	  0.001000	  0.057000	  1.010000	   -0.300000	   -0.260000	   -0.040000	   16.960938
    1.2218	  0.006000	  0.030500	  0.995500	    0.090000	    0.160000	   -0.040000	   16.976563
    1.2318	  0.004500	  0.054000	  0.984000	   -0.280000	    0.240000	   -0.040000	   16.972656
    1.2418	  0.010000	  0.028000	  0.960500	    0.080000	   -0.220000	    0.060000	   16.976563
    1.2518	 -0.001000	  0.051500	  1.009500	   -0.340000	   -0.390000	   -0.010000	   16.972656
    1.2618	  0.001500	  0.027000	  1.000500	    0.030000	    0.020000	    0.020000	   16.960938
    1.2718	  0.005000	  0.060000	  0.982000	   -0.240000	    0.260000	    0.070000	   16.980469
    1.2818	  0.006500	  0.027000	  0.977500	    0.030000	   -0.170000	    0.100000	   16.964844
    1.2918	  0.000000	  0.057500	  1.013500	   -0.330000	   -0.070000	   -0.130000	   16.968750
    1.3018	  0.007000	  0.034000	  0.990500	   -0.020000	    0.000000	    0.030000	   16.984375
    1.3118	  0.007000	  0.058500	  0.988000	   -0.150000	    0.330000	   -0.220000	   17.000000
    1.3218	  0.011500	  0.030500	  0.961500	    0.160000	   -0.260000	    0.130000	   17.007813
    1.3318	  0.000000	  0.055500	  1.008500	   -0.200000	   -0.140000	   -0.100000	   17.003906
    1.3418	  0.002500	  0.024000	  0.996000	    0.070000	    0.010000	    0.040000	   16.988281
    1.3518	  0.007500	  0.055000	  0.979500	   -0.140000	    0.360000	   -0.160000	   16.980469
    1.3618	  0.005000	  0.027500	  0.975000	    0.170000	   -0.250000	   -0.020000	   16.976563
    1.3718	 -0.003000	  0.053000	  1.027500	   -0.500000	   -0.180000	   -0.110000	   17.003906
    1.3818	  0.003500	  0.033500	  0.990500	    0.220000	    0.180000	    0.020000	   17.003906
    1.3918	  0.005000	  0.054000	  0.981500	   -0.160000	    0.260000	   -0.150000	   16.988281
    1.4018	  0.008500	  0.035500	  0.969500	    0.070000	   -0.160000	    0.060000	   16.980469
    1.4118	 -0.000500	  0.054500	  1.003500	   -0.320000	   -0.020000	   -0.120000	   16.988281
    1.4218	  0.000500	  0.028500	  0.998000	    0.030000	    0.030000	   -0.040000	   16.988281
    1.4318	  0.003000	  0.049000	  0.975500	   -0.180000	    0.300000	   -0.140000	   16.980469
    1.4418	  0.010500	  0.030500	  0.963500	    0.090000	   -0.260000	    0.030000	   16.968750
    1.4518	  0.001500	  0.050500	  1.021000	   -0.480000	   -0.250000	   -0.100000	   16.992188
    1.4618	  0.003500	  0.033000	  0.994000	   -0.010000	    0.040000	    0.050000	   16.980469
    1.4718	  0.007000	  0.054500	  0.988500	   -0.140000	    0.330000	   -0.030000	   17.003906
    1.4818	  0.005000	  0.028500	  0.968500	   -0.040000	   -0.390000	    0.110000	   16.996094
    1.4918	 -0.000500	  0.058500	  1.010500	   -0.440000	   -0.040000	   -0.110000	   16.953125
    1.5018	  0.007000	  0.028000	  0.990000	    0.380000	    0.020000	   -0.060000	   16.953125
    1.5118	  0.005500	  0.054500	  0.984500	   -0.180000	    0.300000	   -0.090000	   16.980469
    1.5218	  0.012000	  0.028500	  0.958500	   -0.010000	   -0.080000	    0.010000	   16.972656
    1.5318	 -0.004500	  0.055000	  1.025500	   -0.420000	   -0.240000	   -0.070000	   16.972656
    1.5418	  0.001000	  0.028500	  0.987500	    0.110000	    0.070000	    0.040000	   16.976563
    1.5518	  0.004500	  0.057000	  0.994000	   -0.200000	    0.290000	    0.030000	   16.972656
    1.5618	  0.013000	  0.025500	  0.973000	    0.200000	   -0.300000	    0.090000	   16.960938
    1.5718	 -0.006500	  0.055500	  1.014500	   -0.620000	   -0.460000	   -0.110000	   16.984375
    1.5818	  0.014500	  0.022500	  0.985500	   -0.060000	    0.310000	    0.040000	   16.988281
    1.5918	  0.003500	  0.058500	  0.973500	   -0.310000	    0.190000	   -0.120000	   17.003906
    1.6018	  0.013000	  0.028000	  0.969000	    0.120000	   -0.490000	    0.060000	   17.000000
    1.6118	 -0.007000	  0.056000	  1.028500	   -0.350000	   -0.020000	   -0.100000	   16.992188
    1.6218	  0.000500	  0.032000	  0.981000	    0.180000	    0.140000	    0.040000	   17.000000
    1.6318	  0.004000	  0.051000	  0.989000	   -0.300000	    0.170000	   -0.110000	   16.976563
    1.6418	  0.008500	  0.033500	  0.973000	    0.200000	   -0.170000	    0.190000	   17.003906
    1.6518	  0.002000	  0.049500	  1.010000	   -0.470000	   -0.280000	   -0.080000	   17.003906
    1.6618	  0.004000	  0.033500	  1.005500	    0.100000	    0.090000	    0.070000	   16.972656
    1.6718	  0.011000	  0.048000	  0.973500	   -0.220000	    0.480000	   -0.220000	   16.968750
    1.6818	  0.007500	  0.035000	  0.965500	    0.060000	   -0.450000	    0.060000	   16.976563
    1.6918	  0.003500	  0.051500	  1.022000	   -0.460000	   -0.270000	   -0.140000	   16.996094
    1.7018	 -0.000500	  0.035500	  0.985500	    0.150000	    0.060000	    0.010000	   16.988281
    1.7118	  0.005000	  0.050000	  0.979500	   -0.240000	    0.020000	   -0.170000	   16.996094
    1.7218	  0.005500	  0.032000	  0.973000	    0.040000	   -0.250000	   -0.020000	   17.000000
    1.7318	 -0.003500	  0.052000	  1.016000	   -0.330000	   -0.190000	   -0.090000	   16.988281
    1.7418	 -0.005000	  0.033000	  0.996000	    0.140000	   -0.170000	   -0.010000	   16.972656
    1.7518	  0.008500	  0.057500	  0.987500	   -0.080000	    0.400000	    0.070000	   16.980469
    1.7618	  0.004500	  0.021000	  0.983500	   -0.030000	   -0.460000	    0.120000	   16.980469
    1.7718	  0.006000	  0.059000	  1.009500	   -0.360000	    0.040000	   -0.070000	   16.972656
    1.7818	  0.005000	  0.034000	  0.983500	    0.250000	    0.120000	    0.100000	   16.972656
    1.7918	  0.006500	  0.053000	  0.996500	   -0.140000	    0.290000	   -0.100000	   16.996094
    1.8018	  0.009000	  0.033500	  0.946500	   -0.020000	   -0.240000	    0.060000	   17.007813
    1.8118	  0.000500	  0.051000	  1.020000	   -0.220000	   -0.170000	   -0.140000	   17.011719
    1.8218	  0.004000	  0.028500	  0.999500	    0.130000	    0.230000	    0.120000	   16.984375
    1.8318	  0.010500	  0.051500	  0.964500	   -0.240000	    0.200000	   -0.170000	   16.976563
    1.8418	  0.006000	  0.032000	  0.993500	    0.210000	   -0.310000	    0.060000	   17.000000
    1.8518	  0.000000	  0.047000	  1.021000	   -0.540000	   -0.080000	   -0.050000	   17.007813
    1.8618	 -0.001500	  0.040500	  0.977500	    0.200000	    0.070000	    0.100000	   16.976563
    1.8718	  0.009500	  0.047500	  0.992500	   -0.260000	    0.220000	   -0.180000	   16.980469
    1.8818	  0.009000	  0.037000	  0.961500	    0.030000	   -0.160000	    0.050000	   16.976563
    1.8918	  0.004000	  0.049500	  1.008000	   -0.290000	   -0.180000	   -0.080000	   16.968750
    1.9018	 -0.003500	  0.031000	  1.008500	   -0.020000	    0.140000	    0.030000	   16.976563
    1.9118	  0.009500	  0.045500	  0.966500	   -0.180000	    0.320000	   -0.060000	   16.988281
    1.9218	  0.005500	  0.034500	  0.972000	    0.200000	   -0.330000	    0.080000	   17.000000
    1.9318	 -0.000500	  0.048500	  1.028000	   -0.470000	   -0.330000	   -0.140000	   16.980469
    1.9418	 -0.001000	  0.037500	  0.987500	    0.150000	    0.150000	    0.080000	   16.988281
    1.9518	  0.006000	  0.049500	  0.986000	   -0.020000	    0.210000	    0.010000	   16.992188
    1.9618	  0.006500	  0.032000	  0.966000	    0.090000	   -0.250000	    0.060000	   16.996094
    1.9718	  0.004500	  0.056500	  1.006500	   -0.090000	   -0.240000	    0.010000	   17.000000
    1.9818	 -0.001000	  0.032000	  1.000000	    0.240000	    0.080000	   -0.020000	   16.980469
    1.9918	  0.007000	  0.054000	  0.978500	   -0.190000	    0.270000	   -0.130000	   16.988281
    2.0018	  0.007000	  0.031000	  0.961500	    0.070000	   -0.180000	    0.020000	   16.996094
    2.0118	  0.002500	  0.052000	  1.024000	   -0.340000	   -0.180000	   -0.130000	   17.000000
    2.0220	  0.001500	  0.035500	  0.991000	    0.100000	   -0.190000	    0.030000	   17.023438
    2.0318	  0.011000	  0.053500	  0.991500	   -0.140000	    0.250000	   -0.090000	   17.000000
    2.0418	  0.007000	  0.030000	  0.970000	    0.110000	   -0.190000	    0.070000	   16.996094
    2.0518	  0.003000	  0.051500	  1.009000	   -0.490000	   -0.160000	   -0.020000	   17.007813
    2.0618	  0.006000	  0.034500	  0.989500	    0.220000	    0.040000	    0.000000	   17.000000
    2.0718	  0.008500	  0.049000	  0.982000	   -0.380000	    0.300000	   -0.140000	   16.988281
    2.0818	  0.004500	  0.032500	  0.964500	    0.210000	   -0.210000	    0.110000	   16.980469
    2.0918	 -0.004000	  0.050500	  1.021500	   -0.280000	   -0.030000	   -0.140000	   17.007813
    2.1018	 -0.003000	  0.032500	  0.993500	    0.080000	    0.140000	    0.080000	   17.011719
    2.1118	  0.004500	  0.049000	  0.977500	   -0.230000	    0.270000	   -0.150000	   16.992188
    2.1218	  0.004000	  0.036500	  0.981500	    0.060000	   -0.220000	    0.170000	   17.007813
    2.1318	 -0.000500	  0.042500	  1.013500	   -0.440000	   -0.090000	   -0.190000	   17.003906
    2.1418	  0.003500	  0.036000	  0.990000	    0.160000	    0.280000	    0.090000	   16.996094
    2.1518	  0.013500	  0.047000	  0.977500	   -0.300000	    0.320000	   -0.130000	   17.011719
    2.1618	  0.010500	  0.037500	  0.969000	   -0.040000	   -0.420000	    0.070000	   17.015625
    2.1718	  0.003500	  0.050000	  1.010000	   -0.310000	   -0.010000	   -0.010000	   16.984375
    2.1818	 -0.002500	  0.035500	  0.988000	    0.190000	    0.050000	    0.080000	   17.011719
    2.1918	  0.005000	  0.047500	  0.982500	   -0.270000	    0.100000	   -0.130000	   17.007813
    2.2018	  0.004500	  0.035500	  0.974000	    0.050000	   -0.180000	    0.040000	   17.007813
    2.2118	  0.001000	  0.048500	  1.015000	   -0.550000	   -0.210000	   -0.030000	   16.968750
    2.2218	  0.000000	  0.034000	  0.999500	    0.070000	    0.030000	    0.020000	   16.976563
    2.2318	  0.008000	  0.048000	  0.983500	   -0.180000	    0.250000	   -0.100000	   17.019531
    2.2418	  0.006500	  0.034500	  0.972500	   -0.100000	   -0.460000	    0.040000	   17.035156
    2.2518	  0.000000	  0.050000	  1.018000	   -0.450000	   -0.170000	   -0.010000	   17.007813
    2.2618	  0.001000	  0.038500	  0.984500	    0.160000	    0.200000	    0.010000	   17.019531
    2.2718	  0.004500	  0.048000	  0.983500	   -0.200000	    0.340000	   -0.140000	   17.019531
    2.2818	  0.007000	  0.037000	  0.970500	   -0.020000	   -0.100000	    0.040000	   17.031250
    2.2918	  0.004500	  0.045500	  1.008500	   -0.390000	   -0.090000	   -0.010000	   17.015625
    2.3018	  0.002000	  0.037000	  0.993500	    0.180000	    0.150000	    0.050000	   17.023438
    2.3118	  0.014000	  0.048500	  0.985000	   -0.280000	    0.300000	   -0.170000	   17.003906
    2.3218	  0.004500	  0.037000	  0.977500	    0.190000	   -0.210000	    0.180000	   16.988281
    2.3318	 -0.001000	  0.043500	  1.019000	   -0.550000	   -0.290000	   -0.010000	   17.007813
    2.3418	  0.003000	  0.054500	  0.974000	    0.390000	    0.140000	    0.060000	   17.023438
    2.3518	  0.006500	  0.037500	  0.979500	   -0.160000	    0.050000	   -0.310000	   17.027344
    2.3618	  0.002500	  0.050500	  0.995500	   -0.080000	   -0.260000	    0.090000	   17.023438
    2.3718	  0.006500	  0.034000	  0.980500	   -0.460000	    0.060000	   -0.110000	   17.000000
    2.3818	 -0.002500	  0.045500	  1.009500	    0.230000	    0.070000	   -0.020000	   17.011719
    2.3918	  0.022000	  0.033500	  0.967000	   -0.400000	    0.280000	   -0.050000	   17.011719
    2.4018	 -0.001500	  0.046500	  0.976000	    0.060000	   -0.400000	    0.160000	   17.023438
    2.4118	  0.007000	  0.036000	  1.023500	   -0.560000	   -0.310000	   -0.070000	   17.035156
    2.4218	 -0.006500	  0.046500	  0.996500	    0.240000	    0.180000	    0.050000	   17.039063
    2.4318	  0.012000	  0.041000	  0.961000	   -0.120000	    0.070000	   -0.090000	   17.039063
    2.4418	  0.003000	  0.041500	  0.991000	    0.180000	   -0.380000	    0.080000	   17.011719
    2.4518	  0.008000	  0.043500	  1.010500	   -0.280000	   -0.080000	   -0.050000	   17.003906
    2.4618	 -0.006000	  0.037000	  0.978000	    0.260000	   -0.110000	    0.070000	   17.007813
    2.4718	  0.006500	  0.043500	  0.991000	   -0.140000	    0.030000	   -0.010000	   17.023438
    2.4818	  0.002000	  0.038500	  0.968500	    0.020000	   -0.390000	    0.120000	   17.015625
    2.4918	  0.003000	  0.045000	  1.013500	   -0.390000	   -0.430000	   -0.140000	   17.015625
    2.5018	  0.000500	  0.045500	  1.009500	    0.150000	   -0.020000	    0.140000	   17.015625
    2.5118	  0.014000	  0.045000	  0.977500	   -0.340000	    0.280000	   -0.090000	   17.042969
    2.5218	  0.004500	  0.040000	  0.972500	    0.040000	   -0.170000	   -0.020000	   17.039063
    2.5318	  0.002000	  0.042500	  1.032500	   -0.690000	    0.240000	   -0.160000	   17.035156
    2.5418	  0.013500	  0.043500	  0.952500	    0.220000	    0.290000	    0.180000	   17.031250
    2.5518	  0.010500	  0.041000	  0.979000	   -0.490000	    0.020000	   -0.170000	   17.019531
    2.5618	  0.010000	  0.038000	  0.986500	    0.220000	   -0.320000	    0.170000	   17.015625
    2.5718	 -0.006500	  0.042500	  1.003500	   -0.430000	   -0.400000	   -0.110000	   17.039063
    2.5818	 -0.004500	  0.044500	  1.007000	    0.190000	   -0.080000	    0.070000	   17.046875
    2.5918	  0.006500	  0.044500	  0.982500	   -0.280000	    0.490000	   -0.090000	   17.023438
    2.6019	  0.004500	  0.040000	  0.971500	    0.140000	   -0.280000	    0.110000	   16.992188
    2.6118	  0.005500	  0.038000	  1.031500	   -0.530000	   -0.080000	   -0.030000	   16.980469
    2.6218	  0.009500	  0.040500	  0.971500	    0.120000	    0.160000	    0.070000	   17.000000
    2.6318	  0.012500	  0.043500	  0.972000	   -0.090000	    0.080000	   -0.150000	   17.035156
    2.6418	  0.004000	  0.035500	  0.977000	   -0.070000	   -0.610000	   -0.010000	   17.027344
    2.6518	 -0.003000	  0.047500	  1.016500	   -0.130000	   -0.210000	   -0.110000	   17.027344
    2.6618	 -0.006000	  0.041000	  0.994000	    0.060000	    0.270000	   -0.030000	   17.039063
    2.6718	  0.018000	  0.031500	  0.977500	   -1.500000	   -1.110000	   -0.380000	   17.035156
    2.6818	 -0.006000	  0.036000	  1.047000	   -0.380000	   -0.400000	    0.050000	   17.015625
    2.6919	  0.009000	  0.031000	  0.913500	   -0.430000	   -0.420000	   -0.220000	   17.023438
    2.7018	 -0.010500	  0.054500	  1.092000	    1.200000	    0.640000	    0.220000	   17.035156
    2.7118	  0.006500	  0.028500	  0.955000	   -0.590000	    0.510000	   -0.120000	   17.015625
    2.7218	 -0.002500	  0.059000	  0.930500	    0.630000	   -0.390000	    0.060000	   17.023438
    2.7318	  0.010500	  0.035000	  1.088500	   -0.260000	    0.160000	   -0.080000	   17.039063
    2.7418	 -0.003000	  0.050000	  0.937000	   -0.450000	    0.080000	    0.030000	   17.035156
    2.7518	  0.020500	  0.047500	  0.959000	    0.010000	   -0.220000	   -0.010000	   17.039063
    2.7618	  0.007000	  0.036000	  1.029500	   -0.170000	   -0.240000	    0.110000	   17.050781
    2.7718	  0.002000	  0.047000	  0.960000	   -0.660000	   -0.400000	   -0.040000	   17.062500
    2.7818	 -0.001500	  0.046500	  1.014500	    0.340000	   -0.040000	    0.220000	   17.046875
    2.7918	  0.010000	  0.044500	  1.007000	   -0.560000	    0.420000	   -0.150000	   17.046875
    2.8019	  0.008000	  0.040500	  0.922500	   -0.120000	   -0.520000	    0.040000	   17.058594
    2.8118	  0.002000	  0.046500	  1.061500	   -0.070000	   -0.080000	   -0.050000	   17.031250
    2.8218	  0.000000	  0.043000	  0.979000	    0.090000	    0.310000	    0.060000	   17.003906
    2.8318	  0.004500	  0.049500	  0.952000	   -0.220000	    0.000000	   -0.120000	   17.000000
    2.8418	  0.003500	  0.038000	  1.008000	    0.130000	   -0.310000	    0.020000	   17.035156
    2.8518	  0.001500	  0.040000	  0.990500	   -0.510000	   -0.090000	   -0.110000	   17.027344
    2.8618	  0.001500	  0.041000	  0.994500	    0.160000	   -0.270000	    0.080000	   17.027344
    2.8718	  0.013500	  0.038500	  1.002000	   -0.370000	    0.330000	   -0.070000	   17.015625
    2.8818	  0.003000	  0.040000	  0.952000	   -0.060000	   -0.400000	    0.160000	   17.039063
    2.8919	  0.003000	  0.038000	  1.034000	   -0.390000	   -0.150000	   -0.100000	   17.050781
    2.9018	 -0.007000	  0.051500	  1.001500	   -0.410000	    0.280000	    0.030000	   17.035156
    2.9118	  0.017000	  0.037000	  0.940000	   -0.600000	   -0.080000	   -0.100000	   17.031250
    2.9218	  0.001000	  0.044500	  1.006000	    0.270000	   -0.360000	    0.120000	   17.054688
    2.9318	  0.009000	  0.034500	  1.001000	   -0.410000	   -0.070000	   -0.040000	   17.046875
    2.9418	 -0.003000	  0.046000	  0.979000	    0.430000	    0.080000	   -0.020000	   17.027344
    2.9518	  0.013000	  0.038000	  0.996500	   -0.170000	    0.320000	   -0.180000	   17.027344
    2.9618	  0.005000	  0.041000	  0.965500	    0.060000	   -0.230000	    0.170000	   17.058594
    2.9718	  0.007500	  0.045500	  1.013500	   -0.410000	   -0.540000	   -0.060000	   17.023438
    2.9818	  0.001500	  0.044000	  1.015500	    0.250000	    0.200000	    0.050000	   17.035156
    2.9918	  0.012000	  0.045000	  0.962000	   -0.300000	    0.140000	   -0.020000	   17.039063
    3.0018	  0.007000	  0.038500	  0.971000	    0.180000	   -0.320000	    0.060000	   17.046875
    3.0118	  0.009500	  0.044500	  1.023000	   -0.330000	   -0.250000	   -0.260000	   17.042969
    3.0218	  0.003000	  0.038500	  0.978000	    0.130000	   -0.040000	    0.060000	   17.046875
    3.0321	  0.008000	  0.044500	  0.981500	   -0.240000	    0.040000	   -0.180000	   17.027344
    3.0418	  0.001500	  0.035000	  0.983500	    0.170000	   -0.200000	    0.120000	   17.042969
    3.0519	 -0.000500	  0.041000	  1.014500	   -0.470000	    0.030000	   -0.080000	   17.058594
    3.0619	 -0.002000	  0.045000	  0.995500	    0.180000	    0.140000	    0.060000	   17.062500
    3.0718	  0.012000	  0.044000	  0.984500	   -0.330000	    0.340000	   -0.160000	   17.046875
    3.0818	  0.005500	  0.043000	  0.979000	    0.040000	   -0.030000	    0.070000	   17.066406
    3.0919	  0.005000	  0.039000	  1.012000	   -0.540000	    0.050000	   -0.060000	   17.054688
    3.1018	  0.003500	  0.045000	  0.991000	   -0.140000	    0.350000	    0.100000	   17.050781
    3.1118	  0.013500	  0.040500	  0.973500	   -0.450000	    0.380000	    0.000000	   17.050781
    3.1218	  0.007000	  0.040500	  0.979000	   -0.050000	   -0.070000	    0.090000	   17.054688
    3.1318	  0.008500	  0.036000	  1.006000	   -0.300000	   -0.070000	   -0.100000	   17.050781
    3.1418	  0.000000	  0.047000	  0.990000	    0.150000	    0.320000	   -0.050000	   17.050781
    3.1519	  0.010000	  0.039000	  0.982000	   -0.390000	    0.330000	   -0.130000	   17.023438
    3.1618	  0.004500	  0.044500	  0.985000	   -0.220000	   -0.040000	   -0.030000	   17.035156
    3.1718	  0.004500	  0.036500	  1.015500	   -0.390000	    0.020000	   -0.130000	   17.054688
    3.1818	  0.001500	  0.044500	  0.998500	    0.080000	    0.420000	   -0.020000	   17.042969
    3.1919	  0.013000	  0.042500	  0.970500	   -0.480000	    0.270000	   -0.060000	   17.042969
    3.2018	  0.004000	  0.040500	  0.985500	   -0.320000	   -0.110000	   -0.070000	   17.074219
    3.2118	  0.000500	  0.043000	  1.014000	   -0.410000	    0.010000	   -0.040000	   17.058594
    3.2218	  0.000500	  0.043000	  0.980500	    0.040000	    0.190000	    0.200000	   17.023438
    3.2318	  0.007000	  0.041500	  0.981000	   -0.180000	    0.320000	   -0.200000	   17.042969
    3.2418	  0.001000	  0.039500	  0.979000	    0.070000	   -0.050000	    0.000000	   17.046875
    3.2519	  0.003500	  0.041000	  1.011000	   -0.350000	    0.040000	   -0.040000	   17.066406
    3.2618	  0.001500	  0.042500	  0.997500	    0.260000	    0.360000	    0.110000	   17.046875
    3.2718	  0.009500	  0.042000	  0.973000	   -0.160000	    0.440000	   -0.200000	   17.031250
    3.2818	  0.001500	  0.045000	  0.978500	    0.050000	   -0.180000	    0.080000	   17.042969
    3.2919	 -0.001000	  0.045500	  1.014000	   -0.520000	    0.110000	   -0.060000	   17.050781
    3.3019	 -0.010000	  0.051000	  0.986500	   -0.030000	    0.290000	    0.000000	   17.050781
    3.3118	  0.007000	  0.040500	  0.972500	   -0.450000	    0.440000	   -0.150000	   17.062500
    3.3218	  0.002500	  0.045000	  0.976500	   -0.100000	    0.040000	   -0.020000	   17.070313
    3.3319	  0.007500	  0.034000	  1.005500	   -0.600000	    0.000000	   -0.170000	   17.070313
    3.3419	  0.002000	  0.048000	  0.992500	    0.300000	    0.310000	    0.000000	   17.058594
    3.3519	  0.009000	  0.040500	  0.971000	   -0.190000	    0.300000	   -0.120000	   17.058594
    3.3619	 -0.001500	  0.047000	  0.981500	   -0.220000	   -0.220000	    0.040000	   17.042969
    3.3718	 -0.002500	  0.040000	  1.013000	   -0.620000	    0.100000	   -0.200000	   17.042969
    3.3818	 -0.002500	  0.051000	  0.980500	   -0.170000	    0.290000	   -0.080000	   17.058594
    3.3919	  0.012000	  0.039000	  0.974000	   -0.500000	    0.230000	   -0.170000	   17.074219
    3.4019	  0.003000	  0.045000	  0.981000	   -0.100000	   -0.070000	    0.100000	   17.074219
    3.4119	 -0.001500	  0.035500	  1.004500	   -0.570000	   -0.160000	   -0.190000	   17.078125
    3.4219	 -0.003500	  0.044500	  0.995500	   -0.020000	    0.060000	    0.030000	   17.066406
    3.4319	  0.004500	  0.035000	  0.974000	   -0.260000	    0.070000	   -0.090000	   17.066406
    3.4419	 -0.000500	  0.043500	  0.979500	   -0.240000	   -0.400000	    0.060000	   17.074219
    3.4519	  0.004000	  0.036000	  1.023000	   -0.440000	   -0.210000	   -0.070000	   17.074219
    3.4619	  0.003000	  0.052000	  0.997500	    0.000000	    0.210000	   -0.110000	   17.039063
    3.4719	  0.007000	  0.040000	  0.956500	   -0.290000	    0.030000	   -0.130000	   17.042969
    3.4819	  0.007000	  0.043000	  0.988000	    0.110000	   -0.340000	    0.050000	   17.054688
    3.4919	  0.001000	  0.037000	  1.008000	   -0.140000	   -0.190000	   -0.070000	   17.062500
    3.5019	  0.005500	  0.044000	  0.981000	    0.260000	    0.010000	    0.010000	   17.066406
    3.5119	  0.012000	  0.040500	  0.980000	   -0.140000	   -0.210000	   -0.130000	   17.066406
    3.5219	 -0.002500	  0.036000	  0.979000	    0.020000	   -0.500000	    0.120000	   17.054688
    3.5319	 -0.006500	  0.042000	  1.023000	   -0.450000	   -0.300000	   -0.070000	   17.066406
    3.5419	 -0.008000	  0.048500	  1.000500	    0.100000	    0.120000	    0.070000	   17.070313
    3.5519	  0.006500	  0.040500	  0.970500	   -0.390000	    0.360000	   -0.180000	   17.062500
    3.5619	  0.010500	  0.038500	  0.979500	   -0.310000	   -0.290000	   -0.010000	   17.078125
    3.5719	  0.011500	  0.036500	  1.005000	   -0.170000	   -0.360000	   -0.040000	   17.054688
    3.5819	  0.008500	  0.045000	  0.998000	    0.350000	   -0.110000	    0.070000	   17.046875
    3.5919	  0.007000	  0.037500	  0.967500	    0.060000	    0.150000	   -0.040000	   17.058594
    3.6019	 -0.005000	  0.043000	  0.972000	   -0.020000	   -0.520000	    0.070000	   17.058594
    3.6119	  0.000000	  0.038500	  1.025500	   -0.330000	   -0.080000	   -0.100000	   17.058594
    3.6219	  0.004500	  0.051500	  0.984500	   -0.260000	    0.220000	   -0.030000	   17.042969
    3.6319	  0.015000	  0.037000	  0.977500	   -0.720000	   -0.060000	   -0.150000	   17.066406
    3.6419	  0.011000	  0.039500	  0.991500	   -0.320000	   -0.330000	    0.070000	   17.058594
    3.6519	 -0.005000	  0.035500	  1.004000	   -0.520000	   -0.200000	   -0.220000	   17.054688
    3.6619	 -0.003000	  0.044000	  0.999000	    0.190000	    0.070000	    0.010000	   17.078125
    3.6719	  0.010500	  0.043500	  0.964000	   -0.220000	    0.370000	   -0.100000	   17.078125
    3.6819	  0.021500	  0.037500	  0.975000	   -0.360000	   -0.210000	    0.020000	   17.089844
    3.6919	  0.016500	  0.040500	  1.022500	   -0.350000	   -0.260000	   -0.010000	   17.082031
    3.7019	  0.004500	  0.044500	  0.982000	   -0.040000	   -0.230000	   -0.110000	   17.078125
    3.7119	  0.000000	  0.039500	  0.978500	   -0.090000	   -0.280000	   -0.170000	   17.058594
    3.7219	 -0.012500	  0.037000	  0.978500	    0.050000	   -0.330000	    0.040000	   17.074219
    3.7319	 -0.002500	  0.033500	  1.013000	   -0.300000	   -0.210000	    0.000000	   17.097656
    3.7419	  0.010500	  0.045000	  1.001500	    0.370000	    0.270000	   -0.010000	   17.066406
    3.7519	  0.017500	  0.036000	  0.967500	   -0.040000	    0.190000	   -0.070000	   17.085938
    3.7619	  0.016500	  0.036500	  0.978000	   -0.040000	   -0.240000	    0.130000	   17.082031
    3.7719	  0.004000	  0.037000	  1.018500	   -0.090000	    0.080000	   -0.060000	   17.089844
    3.7819	 -0.003500	  0.041500	  0.972500	    0.480000	   -0.060000	    0.040000	   17.097656
    3.7919	  0.007500	  0.034500	  0.980000	    0.390000	    0.050000	   -0.030000	   17.070313
    3.8019	  0.016500	  0.034500	  0.990000	    0.930000	   -0.120000	    0.230000	   17.085938
    3.8119	  0.016000	  0.041500	  1.013000	    0.320000	    0.170000	    0.180000	   17.085938
    3.8219	  0.017000	  0.040000	  1.003500	    0.860000	    0.390000	    0.240000	   17.078125
    3.8319	  0.007500	  0.048000	  0.989500	    0.160000	    0.660000	    0.040000	   17.082031
    3.8419	  0.002000	  0.043500	  0.971000	   -0.350000	    0.180000	    0.040000	   17.089844
    3.8519	 -0.000500	  0.034000	  1.014500	    0.210000	    0.100000	   -0.050000	   17.101563
    3.8619	 -0.001000	  0.049500	  0.983000	    0.570000	   -0.050000	    0.110000	   17.085938
    3.8719	 -0.004000	  0.037500	  0.976000	    0.390000	   -0.120000	    0.050000	   17.089844
    3.8819	 -0.020500	  0.049500	  0.988500	    0.590000	   -0.370000	    0.280000	   17.113281
    3.8919	 -0.012500	  0.038000	  1.013000	   -0.430000	   -0.050000	   -0.120000	   17.101563
    3.9019	  0.002000	  0.047000	  0.979500	    0.360000	    0.200000	    0.250000	   17.070313
    3.9119	  0.025500	  0.028000	  0.989000	   -0.150000	    0.030000	    0.000000	   17.085938
    3.9219	  0.024000	  0.063500	  1.001500	    0.040000	   -0.500000	    0.290000	   17.082031
    3.9319	  0.008500	  0.027500	  0.991500	   -0.460000	   -0.480000	   -0.010000	   17.078125
    3.9419	 -0.014000	  0.073000	  1.012000	    0.350000	   -0.120000	    0.120000	   17.082031
    3.9519	  0.012000	  0.030500	  0.959500	   -0.350000	    0.190000	   -0.090000	   17.062500
    3.9619	  0.002500	  0.060000	  0.990500	    0.100000	   -0.210000	    0.150000	   17.074219
    3.9719	  0.023000	  0.027500	  1.014000	   -0.320000	   -0.020000	   -0.110000	   17.078125
    3.9819	  0.006000	  0.057000	  0.985500	    0.110000	    0.160000	    0.040000	   17.074219
    3.9919	  0.016000	  0.034500	  0.971000	   -0.090000	    0.140000	   -0.230000	   17.082031
    4.0019	 -0.011000	  0.049500	  1.002000	   -0.060000	   -0.290000	    0.100000	   17.085938
    4.0119	  0.000500	  0.039000	  1.016500	   -0.300000	    0.180000	   -0.110000	   17.070313
    4.0221	 -0.005500	  0.055000	  0.990000	    0.150000	    0.560000	    0.010000	   17.101563
    4.0319	  0.012000	  0.036500	  0.983500	   -0.200000	    0.380000	   -0.150000	   17.082031
    4.0419	  0.005000	  0.045500	  0.976500	   -0.010000	    0.050000	    0.010000	   17.070313
    4.0519	  0.010000	  0.036000	  1.005000	   -0.430000	    0.010000	   -0.260000	   17.105469
    4.0619	  0.001500	  0.043500	  0.992500	    0.090000	    0.460000	    0.070000	   17.101563
    4.0719	  0.016000	  0.033000	  0.966000	   -0.330000	    0.290000	   -0.250000	   17.085938
    4.0819	  0.001000	  0.040500	  0.980000	   -0.140000	   -0.180000	    0.000000	   17.078125
    4.0919	  0.002500	  0.031000	  1.021500	   -0.470000	   -0.020000	   -0.030000	   17.097656
    4.1019	 -0.009000	  0.052000	  0.991500	    0.000000	    0.240000	    0.160000	   17.105469
    4.1119	  0.008000	  0.032000	  0.972500	   -0.320000	    0.210000	   -0.060000	   17.089844
    4.1219	  0.001500	  0.046000	  0.994000	   -0.130000	   -0.120000	    0.270000	   17.066406
    4.1319	  0.003500	  0.032000	  1.006500	   -0.510000	    0.050000	   -0.040000	   17.078125
    4.1419	 -0.001500	  0.053000	  0.977500	    0.200000	    0.250000	    0.100000	   17.101563
    4.1519	  0.011500	  0.032000	  0.972500	   -0.160000	    0.210000	    0.010000	   17.101563
    4.1619	  0.000500	  0.048000	  0.989000	   -0.130000	   -0.160000	    0.110000	   17.082031
    4.1719	  0.007500	  0.036000	  0.999500	   -0.460000	    0.070000	   -0.090000	   17.089844
    4.1819	 -0.001000	  0.053000	  0.987500	    0.210000	    0.220000	    0.020000	   17.093750
    4.1919	  0.011500	  0.036500	  0.975500	   -0.220000	    0.120000	   -0.030000	   17.093750
    4.2019	 -0.005000	  0.050500	  0.986000	   -0.130000	   -0.250000	    0.080000	   17.089844
    4.2119	  0.003000	  0.033500	  1.011500	   -0.140000	   -0.020000	   -0.120000	   17.109375
    4.2219	 -0.001500	  0.050000	  0.986000	    0.120000	    0.320000	    0.060000	   17.128906
    4.2319	  0.016000	  0.036000	  0.964000	   -0.310000	    0.080000	   -0.090000	   17.113281
    4.2419	 -0.003500	  0.048500	  0.985500	   -0.050000	   -0.390000	    0.030000	   17.089844
    4.2519	 -0.001000	  0.034500	  1.007500	   -0.420000	   -0.080000	   -0.170000	   17.085938
    4.2619	 -0.006500	  0.055000	  0.973500	    0.100000	    0.150000	    0.150000	   17.074219
    4.2719	  0.013000	  0.032500	  0.971500	   -0.090000	    0.160000	   -0.080000	   17.097656
    4.2819	  0.001000	  0.048000	  0.989500	   -0.150000	   -0.180000	    0.140000	   17.085938
    4.2919	  0.010000	  0.031500	  1.006500	   -0.300000	   -0.070000	   -0.200000	   17.097656
    4.3019	  0.002500	  0.056000	  0.999500	    0.130000	    0.060000	    0.000000	   17.109375
    4.3119	  0.014000	  0.030500	  0.966500	   -0.080000	    0.060000	   -0.180000	   17.109375
    4.3219	 -0.005000	  0.056500	  0.986500	    0.040000	   -0.360000	    0.150000	   17.097656
    4.3319	  0.004000	  0.030500	  1.010500	   -0.060000	    0.140000	   -0.140000	   17.101563
    4.3419	  0.014500	  0.051500	  0.966000	    0.460000	   -0.140000	    0.020000	   17.097656
    4.3519	 -0.004500	  0.030500	  0.988500	   -0.310000	   -0.550000	   -0.220000	   17.109375
    4.3619	 -0.030000	  0.047000	  1.010000	    0.180000	    0.190000	    0.070000	   17.097656
    4.3719	 -0.019000	  0.025500	  0.958000	   -0.450000	   -0.090000	   -0.170000	   17.113281
    4.3819	  0.003000	  0.053500	  1.024500	    0.430000	    0.330000	    0.170000	   17.078125
    4.3919	  0.034500	  0.025500	  0.991000	   -0.190000	    0.450000	   -0.080000	   17.078125
    4.4019	  0.009500	  0.051000	  0.967000	   -0.030000	   -0.390000	    0.050000	   17.074219
    4.4119	 -0.004500	  0.033500	  1.027000	   -0.110000	   -0.150000	    0.140000	   17.093750
    4.4219	 -0.017500	  0.065000	  0.990500	    0.030000	    0.250000	   -0.010000	   17.117188
    4.4319	  0.003000	  0.033000	  0.948000	   -0.520000	    0.080000	   -0.240000	   17.128906
    4.4419	  0.016500	  0.054500	  1.002000	   -0.050000	   -0.240000	    0.150000	   17.125000
    4.4519	  0.019000	  0.030500	  1.018000	   -0.540000	   -0.050000	   -0.150000	   17.105469
    4.4619	  0.012500	  0.055000	  0.971500	    0.130000	    0.080000	    0.140000	   17.097656
    4.4719	  0.006500	  0.031500	  0.983500	   -0.130000	   -0.080000	   -0.070000	   17.117188
    4.4819	 -0.008000	  0.054000	  0.999500	   -0.270000	   -0.310000	    0.050000	   17.117188
    4.4919	 -0.003500	  0.035000	  1.014500	   -0.390000	   -0.030000	   -0.120000	   17.113281
    4.5019	  0.005500	  0.057000	  0.993000	   -0.020000	    0.300000	   -0.070000	   17.117188
    4.5119	  0.015000	  0.032000	  0.964500	   -0.250000	    0.030000	   -0.110000	   17.113281
    4.5219	  0.002000	  0.049500	  0.984500	    0.120000	   -0.530000	    0.010000	   17.109375
    4.5319	 -0.004500	  0.035500	  1.012000	   -0.240000	   -0.300000	   -0.170000	   17.085938
    4.5419	 -0.006500	  0.044500	  0.977500	    0.320000	    0.050000	   -0.050000	   17.093750
    4.5519	  0.011500	  0.029000	  0.966000	    0.110000	   -0.160000	   -0.130000	   17.097656
    4.5619	  0.006000	  0.044000	  0.990000	    0.200000	   -0.630000	    0.120000	   17.101563
    4.5719	  0.005500	  0.032000	  1.016000	   -0.050000	   -0.440000	    0.010000	   17.109375
    4.5819	 -0.006500	  0.060500	  1.010000	    0.210000	   -0.070000	    0.100000	   17.089844
    4.5919	  0.010000	  0.026000	  0.972000	   -0.330000	    0.180000	   -0.040000	   17.097656
    4.6019	  0.002000	  0.054000	  0.972500	   -0.050000	   -0.240000	    0.120000	   17.144531
    4.6119	  0.010000	  0.032500	  1.022000	   -0.590000	   -0.380000	   -0.100000	   17.132813
    4.6219	  0.004000	  0.054500	  0.986500	    0.010000	    0.110000	    0.070000	   17.125000
    4.6319	  0.008500	  0.031500	  0.952000	   -0.290000	   -0.110000	   -0.010000	   17.117188
    4.6419	 -0.001000	  0.049500	  0.993500	    0.000000	   -0.460000	    0.110000	   17.121094
    4.6519	  0.010500	  0.035000	  1.002500	   -0.170000	   -0.010000	   -0.170000	   17.125000
    4.6619	  0.005500	  0.055500	  0.988000	    0.230000	   -0.150000	   -0.030000	   17.117188
    4.6719	  0.020500	  0.032000	  0.987500	   -0.220000	   -0.030000	   -0.010000	   17.128906
    4.6819	  0.004500	  0.048500	  0.977000	   -0.020000	   -0.440000	    0.070000	   17.101563
    4.6919	  0.002500	  0.028500	  1.005000	   -0.190000	   -0.470000	   -0.030000	   17.105469
    4.7019	 -0.003000	  0.057500	  1.000000	    0.300000	    0.040000	    0.030000	   17.109375
    4.7119	  0.013000	  0.033000	  0.967000	   -0.360000	    0.000000	   -0.150000	   17.121094
    4.7219	  0.005000	  0.048000	  0.986000	   -0.040000	   -0.360000	    0.110000	   17.125000
    4.7319	  0.005500	  0.033000	  1.009500	   -0.330000	   -0.230000	    0.030000	   17.128906
    4.7419	 -0.004000	  0.057000	  0.993500	    0.160000	    0.000000	    0.050000	   17.121094
    4.7519	  0.013000	  0.032000	  0.986500	   -0.460000	    0.160000	   -0.180000	   17.132813
    4.7619	 -0.001000	  0.052000	  0.984500	   -0.270000	    0.100000	   -0.070000	   17.125000
    4.7719	  0.011000	  0.029000	  1.020000	   -0.730000	    0.190000	   -0.010000	   17.101563
    4.7819	  0.010000	  0.053500	  1.008500	   -0.150000	    0.710000	    0.040000	   17.097656
    4.7919	  0.006500	  0.035000	  0.967000	   -0.530000	    0.710000	   -0.180000	   17.117188
    4.8019	 -0.012000	  0.050500	  0.960500	   -0.230000	    0.010000	    0.060000	   17.136719
    4.8120	 -0.000500	  0.034000	  1.011500	   -0.370000	    0.090000	   -0.140000	   17.125000
    4.8219	  0.006000	  0.050000	  0.998000	    0.150000	    0.610000	   -0.040000	   17.121094
    4.8319	  0.031500	  0.030500	  0.962000	   -0.070000	    0.280000	   -0.140000	   17.132813
    4.8419	  0.008500	  0.042500	  0.983500	    0.090000	   -0.370000	    0.050000	   17.148438
    4.8519	 -0.003500	  0.035000	  1.020000	   -0.390000	   -0.220000	   -0.050000	   17.132813
    4.8619	 -0.015500	  0.049500	  0.987500	    0.090000	    0.140000	    0.040000	   17.125000
    4.8719	  0.009000	  0.033000	  0.976500	   -0.420000	    0.320000	   -0.090000	   17.136719
    4.8819	  0.010500	  0.046500	  0.988500	    0.070000	   -0.160000	    0.090000	   17.132813
    4.8919	  0.013000	  0.034500	  1.013500	   -0.410000	   -0.060000	   -0.060000	   17.132813
    4.9019	  0.002500	  0.056000	  0.982500	    0.210000	    0.060000	    0.000000	   17.132813
    4.9120	  0.006500	  0.032500	  0.969500	   -0.230000	    0.080000	   -0.050000	   17.136719
    4.9219	 -0.005500	  0.051500	  0.992500	   -0.220000	   -0.370000	    0.190000	   17.117188
    4.9319	  0.007500	  0.028500	  1.000000	   -0.380000	    0.040000	   -0.070000	   17.109375
    4.9419	  0.005000	  0.052000	  0.991500	    0.190000	    0.240000	    0.060000	   17.113281
    4.9519	  0.013000	  0.033000	  0.980000	   -0.290000	   -0.030000	   -0.100000	   17.136719
    4.9619	 -0.006500	  0.053000	  0.993500	   -0.080000	   -0.370000	    0.100000	   17.125000
    4.9719	 -0.001500	  0.033000	  1.010500	   -0.280000	    0.090000	   -0.070000	   17.113281
    4.9819	 -0.002500	  0.060000	  0.987000	    0.200000	    0.310000	    0.020000	   17.132813
    4.9919	  0.018500	  0.034000	  0.964500	   -0.310000	    0.050000	    0.000000	   17.117188
    5.0019	  0.007000	  0.053000	  0.992500	    0.070000	   -0.130000	    0.190000	   17.121094
    5.0119	  0.004000	  0.031000	  1.004500	   -0.300000	    0.000000	   -0.170000	   17.113281
    5.0219	 -0.001000	  0.051000	  0.979500	    0.290000	    0.340000	   -0.140000	   17.113281
    5.0319	  0.010000	  0.031500	  0.975000	   -0.070000	    0.150000	   -0.190000	   17.148438
    5.0419	  0.000500	  0.047500	  0.992000	   -0.180000	   -0.200000	    0.030000	   17.132813
    5.0519	  0.002000	  0.034000	  1.014500	   -0.380000	    0.010000	   -0.070000	   17.148438
    5.0622	 -0.003000	  0.052500	  0.992000	    0.240000	    0.290000	    0.000000	   17.132813
    5.0719	  0.005000	  0.028500	  0.966000	   -0.140000	    0.120000	   -0.110000	   17.132813
    5.0819	 -0.004000	  0.052000	  0.988500	    0.000000	   -0.130000	    0.170000	   17.121094
    5.0919	  0.004500	  0.033500	  1.008500	   -0.390000	    0.000000	   -0.080000	   17.136719
    5.1019	 -0.006500	  0.052500	  0.986500	    0.120000	    0.200000	    0.050000	   17.132813
    5.1119	  0.009500	  0.028500	  0.969000	   -0.260000	    0.200000	    0.010000	   17.117188
    5.1220	  0.001500	  0.047500	  0.986500	   -0.080000	   -0.240000	    0.140000	   17.113281
    5.1319	  0.006000	  0.034000	  1.012500	   -0.530000	   -0.090000	    0.010000	   17.101563
    5.1419	 -0.001000	  0.057500	  0.996000	    0.310000	    0.260000	    0.030000	   17.121094
    5.1519	  0.011500	  0.032000	  0.973000	   -0.240000	    0.220000	   -0.130000	   17.121094
    5.1619	  0.001000	  0.051000	  0.989000	    0.100000	   -0.250000	    0.080000	   17.125000
    5.1719	  0.006000	  0.029500	  1.011000	   -0.440000	   -0.030000	   -0.070000	   17.125000
    5.1819	  0.003500	  0.058500	  0.982500	    0.250000	    0.200000	    0.220000	   17.109375
    5.1919	  0.015000	  0.030000	  0.964000	   -0.270000	   -0.170000	   -0.100000	   17.140625
    5.2019	 -0.006000	  0.054500	  0.998000	    0.030000	   -0.440000	    0.110000	   17.171875
    5.2119	 -0.002500	  0.032000	  1.004500	   -0.280000	   -0.150000	   -0.080000	   17.140625
    5.2220	 -0.009500	  0.059500	  0.988500	    0.200000	    0.080000	    0.000000	   17.148438
    5.2319	  0.011500	  0.028000	  0.976000	   -0.300000	    0.170000	   -0.040000	   17.148438
    5.2419	  0.002000	  0.055000	  0.987500	   -0.100000	   -0.220000	    0.000000	   17.144531
    5.2519	  0.010000	  0.026000	  1.011500	   -0.330000	    0.010000	   -0.080000	   17.125000
    5.2619	  0.005000	  0.057000	  0.990500	    0.250000	    0.330000	   -0.020000	   17.125000
    5.2719	  0.017500	  0.030500	  0.954000	   -0.300000	    0.050000	   -0.160000	   17.132813
    5.2819	  0.000500	  0.053500	  0.995500	   -0.030000	   -0.570000	    0.070000	   17.105469
    5.2919	  0.000000	  0.034500	  1.015000	   -0.340000	   -0.090000	   -0.130000	   17.117188
    5.3019	 -0.001500	  0.053000	  0.972000	    0.170000	    0.110000	    0.020000	   17.152344
    5.3119	  0.003500	  0.031000	  0.982500	   -0.300000	   -0.010000	   -0.120000	   17.144531
    5.3220	  0.004000	  0.045000	  0.984000	   -0.090000	   -0.180000	    0.000000	   17.136719
    5.3319	 -0.006000	  0.036000	  1.011500	   -0.310000	   -0.400000	   -0.040000	   17.125000
    5.3419	 -0.004000	  0.049500	  1.001000	    0.070000	    0.150000	    0.070000	   17.109375
    5.3520	  0.007000	  0.031500	  0.961500	   -0.230000	    0.160000	   -0.160000	   17.132813
    5.3619	  0.005000	  0.049500	  0.985000	   -0.110000	   -0.450000	    0.140000	   17.117188
    5.3719	  0.008000	  0.034000	  1.018000	   -0.400000	   -0.130000	   -0.070000	   17.128906
    5.3819	  0.004500	  0.056500	  0.980500	    0.110000	    0.230000	    0.150000	   17.132813
    5.3919	  0.018000	  0.027000	  0.969000	   -0.330000	   -0.130000	   -0.040000	   17.132813
    5.4020	  0.007500	  0.051500	  0.993500	    0.250000	   -0.240000	    0.020000	   17.152344
    5.4119	  0.010500	  0.026500	  1.002500	   -0.390000	   -0.220000	   -0.130000	   17.140625
    5.4220	  0.002500	  0.059500	  1.002000	    0.290000	    0.160000	    0.010000	   17.144531
    5.4319	  0.014000	  0.027000	  0.974000	   -0.310000	   -0.020000	   -0.100000	   17.164063
    5.4419	 -0.000500	  0.056000	  0.991500	    0.070000	   -0.360000	    0.150000	   17.175781
    5.4520	  0.003000	  0.027500	  1.021000	   -0.210000	   -0.040000	   -0.110000	   17.175781
    5.4619	 -0.003500	  0.063000	  0.983500	    0.050000	    0.270000	    0.080000	   17.164063
    5.4719	  0.009500	  0.027000	  0.962000	   -0.260000	   -0.020000	   -0.130000	   17.144531
    5.4820	 -0.001000	  0.049500	  0.999500	    0.040000	   -0.310000	    0.010000	   17.148438
    5.4920	  0.004500	  0.029000	  1.002000	   -0.430000	   -0.070000	   -0.020000	   17.160156
    5.5020	  0.001000	  0.049500	  0.988500	    0.060000	    0.210000	    0.110000	   17.156250
    5.5119	  0.015500	  0.030000	  0.981000	   -0.110000	    0.180000	   -0.040000	   17.140625
    5.5220	  0.004500	  0.050500	  0.981000	   -0.070000	   -0.210000	    0.110000	   17.164063
    5.5320	  0.006500	  0.034500	  1.017500	   -0.310000	   -0.080000	   -0.040000	   17.148438
    5.5420	  0.003500	  0.056500	  0.994500	    0.220000	    0.440000	    0.110000	   17.132813
    5.5520	  0.013500	  0.037000	  0.960500	   -0.180000	    0.090000	   -0.050000	   17.156250
    5.5620	  0.006500	  0.049000	  0.987000	    0.100000	   -0.280000	    0.110000	   17.171875
    5.5720	  0.002500	  0.034000	  1.015000	   -0.430000	   -0.170000	   -0.010000	   17.187500
    5.5820	 -0.003000	  0.051000	  0.980000	    0.050000	    0.220000	    0.160000	   17.171875
    5.5920	  0.009000	  0.031500	  0.974500	   -0.250000	    0.070000	   -0.040000	   17.140625
    5.6020	  0.001000	  0.046500	  0.992000	   -0.080000	   -0.340000	    0.140000	   17.148438
    5.6120	  0.000500	  0.034500	  1.010500	   -0.390000	   -0.140000	   -0.110000	   17.164063
    5.6220	 -0.001000	  0.059500	  1.004000	    0.220000	    0.160000	    0.100000	   17.156250
    5.6320	  0.009000	  0.031500	  0.974500	   -0.270000	    0.180000	   -0.130000	   17.148438
    5.6420	  0.004000	  0.051000	  0.979000	    0.090000	   -0.100000	    0.070000	   17.156250
    5.6520	  0.009500	  0.028000	  1.010000	   -0.540000	   -0.060000	   -0.120000	   17.164063
    5.6620	  0.005500	  0.054500	  0.985500	    0.090000	    0.320000	    0.090000	   17.171875
    5.6720	  0.016500	  0.028000	  0.957000	   -0.370000	   -0.120000	   -0.170000	   17.167969
    5.6820	 -0.002500	  0.049500	  1.000000	   -0.020000	   -0.390000	    0.160000	   17.160156
    5.6920	 -0.001000	  0.031500	  1.011500	   -0.450000	   -0.040000	   -0.120000	   17.171875
    5.7020	 -0.009000	  0.057500	  0.986000	    0.200000	    0.210000	    0.060000	   17.152344
    5.7120	  0.007500	  0.034500	  0.983000	   -0.170000	    0.100000	   -0.090000	   17.160156
    5.7220	  0.005000	  0.050500	  0.988500	   -0.010000	   -0.120000	   -0.060000	   17.152344
    5.7320	  0.006000	  0.033500	  1.004500	   -0.300000	    0.050000	   -0.240000	   17.164063
    5.7420	  0.002500	  0.053000	  0.994500	    0.110000	    0.270000	    0.100000	   17.171875
    5.7520	  0.011500	  0.034000	  0.964000	   -0.150000	    0.070000	   -0.130000	   17.164063
    5.7620	  0.001500	  0.046500	  0.981500	   -0.020000	   -0.410000	   -0.010000	   17.164063
    5.7720	  0.005500	  0.039500	  1.007000	   -0.340000	    0.010000	   -0.150000	   17.195313
    5.7820	 -0.003000	  0.042500	  0.983000	    0.080000	    0.190000	    0.000000	   17.179688
    5.7920	  0.010500	  0.038000	  0.982500	   -0.330000	   -0.040000	   -0.180000	   17.175781
    5.8020	 -0.000500	  0.044500	  0.984000	    0.030000	   -0.130000	    0.130000	   17.187500
    5.8120	 -0.001500	  0.040000	  1.019000	   -0.470000	   -0.180000	    0.020000	   17.164063
    5.8220	 -0.001500	  0.048000	  0.998500	    0.170000	    0.340000	    0.030000	   17.156250
    5.8320	  0.011500	  0.036000	  0.960000	   -0.310000	    0.160000	   -0.040000	   17.152344
    5.8420	  0.008000	  0.046500	  0.985500	   -0.100000	   -0.490000	    0.140000	   17.179688
    5.8520	  0.007500	  0.038000	  1.010500	   -0.350000	   -0.080000	    0.000000	   17.164063
    5.8620	 -0.002000	  0.052500	  0.979500	    0.100000	   -0.010000	    0.000000	   17.164063
    5.8720	  0.007500	  0.034500	  0.979500	   -0.140000	    0.010000	    0.000000	   17.187500
    5.8820	  0.002500	  0.044500	  0.980500	    0.110000	   -0.120000	    0.080000	   17.183594
    5.8920	  0.007500	  0.034000	  1.006500	   -0.270000	   -0.200000	   -0.040000	   17.144531
    5.9020	  0.006500	  0.051000	  1.007500	    0.200000	    0.100000	    0.080000	   17.167969
    5.9120	  0.010500	  0.033000	  0.968500	   -0.310000	    0.230000	   -0.120000	   17.164063
    5.9220	 -0.000500	  0.047000	  0.982500	    0.020000	   -0.370000	    0.170000	   17.171875
    5.9320	 -0.001000	  0.036000	  1.025500	   -0.210000	   -0.040000	   -0.130000	   17.187500
    5.9420	  0.001000	  0.055500	  0.976500	    0.200000	    0.200000	    0.120000	   17.175781
    5.9520	  0.012000	  0.033000	  0.971000	   -0.230000	   -0.110000	   -0.150000	   17.179688
    5.9620	  0.004000	  0.049000	  0.996000	    0.030000	   -0.260000	    0.030000	   17.167969
    5.9720	  0.004000	  0.029500	  0.996000	   -0.300000	   -0.080000	   -0.140000	   17.195313
    5.9820	 -0.003500	  0.047000	  0.996000	    0.150000	    0.070000	    0.040000	   17.179688
    5.9920	  0.009500	  0.033000	  0.977500	   -0.190000	    0.210000	    0.010000	   17.171875
    6.0020	  0.003500	  0.048000	  0.987500	    0.050000	   -0.110000	    0.040000	   17.164063
    6.0120	  0.003000	  0.032000	  1.018000	   -0.330000	   -0.010000	    0.040000	   17.160156
    6.0220	  0.000000	  0.054000	  0.983500	    0.200000	    0.270000	    0.000000	   17.183594
    6.0320	  0.008500	  0.035000	  0.966500	   -0.230000	    0.050000	   -0.050000	   17.175781
    6.0420	  0.002000	  0.048000	  0.989500	    0.070000	   -0.200000	    0.050000	   17.156250
    6.0520	  0.005000	  0.034500	  1.010000	   -0.440000	   -0.080000	   -0.060000	   17.160156
    6.0623	 -0.005000	  0.049500	  0.979500	    0.190000	    0.110000	    0.090000	   17.167969
    6.0720	  0.006500	  0.029500	  0.978000	   -0.130000	    0.040000	   -0.140000	   17.156250
    6.0820	 -0.000500	  0.050000	  0.988500	   -0.030000	   -0.310000	    0.150000	   17.164063
    6.0920	  0.004500	  0.036500	  1.009000	   -0.420000	   -0.150000	   -0.020000	   17.156250
    6.1020	  0.005000	  0.056500	  0.999000	    0.170000	    0.170000	    0.100000	   17.179688
    6.1120	  0.013500	  0.032000	  0.968500	   -0.210000	   -0.020000	   -0.110000	   17.183594
    6.1220	  0.004500	  0.057000	  0.984500	    0.120000	   -0.440000	    0.180000	   17.175781
    6.1320	  0.006000	  0.031000	  1.009500	   -0.320000	   -0.270000	   -0.070000	   17.175781
    6.1420	 -0.001000	  0.055000	  0.987000	    0.300000	    0.250000	    0.070000	   17.175781
    6.1520	  0.010000	  0.030500	  0.969000	   -0.220000	    0.070000	   -0.140000	   17.164063
    6.1620	  0.002500	  0.051000	  0.990500	    0.040000	   -0.310000	    0.140000	   17.171875
    6.1720	  0.002500	  0.032000	  1.012000	   -0.270000	   -0.170000	   -0.160000	   17.183594
    6.1820	 -0.006000	  0.057500	  0.995500	    0.190000	    0.100000	    0.130000	   17.207031
    6.1920	  0.008000	  0.033500	  0.977000	   -0.310000	    0.300000	   -0.190000	   17.183594
    6.2020	  0.002000	  0.050500	  0.991500	   -0.030000	   -0.040000	    0.010000	   17.195313
    6.2120	  0.008500	  0.032500	  1.006000	   -0.290000	    0.030000	   -0.150000	   17.179688
    6.2220	  0.008500	  0.050500	  0.984000	    0.210000	    0.210000	    0.030000	   17.164063
    6.2320	  0.014000	  0.033000	  0.962500	   -0.270000	    0.040000	   -0.060000	   17.160156
    6.2420	 -0.001000	  0.049000	  0.998000	   -0.170000	   -0.420000	    0.010000	   17.183594
    6.2520	 -0.001000	  0.033000	  1.000500	   -0.190000	   -0.010000	   -0.010000	   17.187500
    6.2620	 -0.007000	  0.054500	  0.984000	    0.230000	    0.150000	    0.010000	   17.167969
    6.2720	  0.013500	  0.028500	  0.992000	   -0.210000	    0.090000	   -0.120000	   17.156250
    6.2820	  0.012500	  0.056000	  0.973000	   -0.330000	   -0.280000	    0.070000	   17.175781
    6.2920	  0.003000	  0.027500	  1.020000	   -0.410000	   -0.210000	   -0.180000	   17.199219
    6.3020	 -0.000500	  0.054500	  0.999000	    0.090000	    0.350000	    0.130000	   17.179688
    6.3120	  0.005000	  0.029000	  0.938000	   -0.200000	    0.020000	   -0.110000	   17.171875
    6.3220	  0.000500	  0.056000	  1.004000	    0.230000	   -0.390000	    0.090000	   17.195313
    6.3320	  0.003000	  0.032000	  1.015500	   -0.350000	    0.010000	   -0.070000	   17.179688
    6.3420	  0.007500	  0.055500	  0.965500	    0.270000	    0.180000	   -0.040000	   17.187500
    6.3520	  0.012000	  0.026500	  0.983500	   -0.030000	   -0.040000	   -0.150000	   17.195313
    6.3620	  0.005000	  0.053000	  0.992500	    0.090000	   -0.310000	    0.120000	   17.210938
    6.3720	  0.001500	  0.031000	  1.003500	   -0.430000	   -0.340000	   -0.140000	   17.210938
    6.3820	 -0.000500	  0.058000	  1.006500	    0.210000	    0.330000	    0.140000	   17.203125
    6.3920	  0.012000	  0.025000	  0.960000	   -0.360000	    0.060000	   -0.030000	   17.183594
    6.4020	  0.005500	  0.058500	  0.985500	    0.040000	   -0.320000	    0.090000	   17.136719
    6.4120	  0.007500	  0.027500	  1.020500	   -0.300000	   -0.050000	   -0.020000	   17.160156
    6.4220	 -0.001000	  0.061500	  0.979500	    0.030000	    0.130000	    0.040000	   17.199219
    6.4320	  0.011000	  0.024000	  0.957500	   -0.160000	   -0.110000	   -0.090000	   17.191406
    6.4420	 -0.001500	  0.056000	  1.008000	   -0.060000	   -0.240000	    0.160000	   17.175781
    6.4520	  0.003000	  0.025000	  1.001000	   -0.290000	    0.000000	   -0.070000	   17.191406
    6.4620	 -0.002000	  0.055000	  0.994500	   -0.020000	    0.170000	    0.020000	   17.183594
    6.4720	  0.011000	  0.024500	  0.980500	   -0.310000	    0.160000	   -0.150000	   17.187500
    6.4820	  0.003000	  0.054000	  0.985500	   -0.210000	   -0.230000	    0.060000	   17.187500
    6.4920	  0.007500	  0.027500	  1.009500	   -0.280000	   -0.080000	   -0.070000	   17.199219
    6.5020	  0.001000	  0.058500	  0.988500	   -0.010000	    0.310000	    0.050000	   17.191406
    6.5120	  0.011500	  0.024500	  0.958500	   -0.380000	   -0.230000	   -0.070000	   17.203125
    6.5220	  0.000500	  0.056000	  0.996500	    0.040000	   -0.210000	    0.150000	   17.210938
    6.5320	 -0.002000	  0.027000	  1.005500	   -0.350000	   -0.090000	   -0.050000	   17.195313
    6.5420	  0.000000	  0.053000	  0.986000	    0.100000	    0.130000	    0.070000	   17.179688
    6.5520	  0.013000	  0.026000	  0.972000	   -0.230000	    0.100000	   -0.120000	   17.203125
    6.5620	  0.006000	  0.057000	  0.997500	   -0.050000	   -0.440000	    0.070000	   17.222656
    6.5720	  0.005000	  0.033000	  1.015000	   -0.410000	   -0.180000	   -0.040000	   17.207031
    6.5820	 -0.002000	  0.060500	  0.990000	    0.270000	    0.190000	    0.040000	   17.230469
    6.5920	  0.010000	  0.028000	  0.958500	   -0.160000	   -0.010000	    0.020000	   17.222656
    6.6020	  0.004000	  0.055500	  0.993500	   -0.020000	   -0.320000	    0.090000	   17.207031
    6.6120	  0.009500	  0.030500	  1.007000	   -0.310000	   -0.090000	   -0.070000	   17.195313
    6.6220	  0.003500	  0.053500	  0.981500	    0.200000	    0.240000	    0.130000	   17.210938
    6.6320	  0.013000	  0.026500	  0.970000	   -0.140000	   -0.180000	   -0.040000	   17.222656
    6.6420	 -0.003500	  0.053000	  0.993500	   -0.060000	   -0.320000	    0.110000	   17.203125
    6.6520	 -0.001500	  0.033000	  1.015500	   -0.230000	   -0.160000	   -0.130000	   17.179688
    6.6620	 -0.003000	  0.060000	  0.997500	    0.090000	    0.170000	    0.110000	   17.195313
    6.6720	  0.020000	  0.027000	  0.969500	   -0.270000	    0.200000	   -0.100000	   17.214844
    6.6820	  0.003000	  0.057000	  0.995000	   -0.010000	   -0.290000	    0.010000	   17.195313
    6.6920	  0.010500	  0.025500	  1.000500	   -0.260000	   -0.040000	   -0.050000	   17.203125
    6.7020	 -0.016000	  0.059500	  0.990000	    0.220000	    0.260000	    0.000000	   17.203125
    6.7120	  0.005500	  0.025500	  0.965500	   -0.140000	    0.150000	   -0.160000	   17.199219
    6.7220	 -0.001500	  0.055000	  0.988000	   -0.110000	   -0.150000	    0.010000	   17.171875
    6.7320	  0.012000	  0.027000	  1.011500	   -0.430000	   -0.030000	    0.020000	   17.191406
    6.7420	 -0.001500	  0.059000	  0.995000	    0.080000	    0.200000	    0.070000	   17.222656
    6.7520	  0.005500	  0.026000	  0.968000	   -0.230000	   -0.050000	   -0.020000	   17.214844
    6.7620	 -0.002000	  0.056500	  0.990500	   -0.040000	   -0.340000	    0.080000	   17.210938
    6.7720	  0.003000	  0.027000	  1.011000	   -0.330000	    0.030000	   -0.020000	   17.222656
    6.7820	  0.007500	  0.056500	  0.988000	    0.220000	    0.510000	    0.100000	   17.195313
    6.7920	  0.019000	  0.025000	  0.962000	   -0.190000	    0.100000	   -0.140000	   17.191406
    6.8020	 -0.000500	  0.058000	  0.994500	   -0.060000	   -0.370000	    0.100000	   17.183594
    6.8120	  0.003000	  0.026500	  1.005000	   -0.380000	    0.120000	   -0.110000	   17.179688
    6.8220	 -0.006000	  0.065500	  0.983500	    0.260000	    0.270000	    0.080000	   17.210938
    6.8320	  0.018000	  0.020500	  0.970500	   -0.400000	    0.110000	   -0.280000	   17.218750
    6.8420	  0.006500	  0.059500	  0.994500	    0.200000	   -0.150000	    0.110000	   17.203125
    6.8520	  0.007500	  0.023000	  1.009000	   -0.440000	   -0.210000	   -0.180000	   17.222656
    6.8620	 -0.004500	  0.059000	  0.998000	    0.370000	    0.370000	    0.120000	   17.218750
    6.8720	  0.007000	  0.027000	  0.950000	   -0.090000	   -0.030000	   -0.060000	   17.218750
    6.8820	 -0.005000	  0.056500	  1.002000	    0.010000	   -0.530000	    0.000000	   17.222656
    6.8920	  0.005500	  0.031000	  1.013000	   -0.250000	    0.050000	   -0.090000	   17.207031
    6.9020	 -0.007000	  0.056000	  0.975000	    0.180000	    0.150000	    0.000000	   17.226563
    6.9120	  0.011000	  0.026000	  0.974500	   -0.020000	   -0.010000	   -0.100000	   17.246094
    6.9220	  0.000500	  0.054000	  0.984500	    0.100000	   -0.220000	    0.080000	   17.234375
    6.9320	  0.005500	  0.029000	  1.008500	   -0.370000	   -0.300000	   -0.090000	   17.207031
    6.9420	 -0.000500	  0.056000	  1.001000	    0.280000	    0.250000	    0.080000	   17.242188
    6.9520	  0.012000	  0.031000	  0.964500	   -0.150000	    0.140000	   -0.060000	   17.234375
    6.9620	  0.003500	  0.054000	  0.991000	   -0.110000	   -0.340000	    0.040000	   17.195313
    6.9720	  0.010500	  0.034500	  1.014500	   -0.360000	    0.010000	   -0.170000	   17.222656
    6.9820	  0.006000	  0.058000	  0.975500	    0.110000	    0.120000	    0.080000	   17.214844
    6.9920	  0.011000	  0.032500	  0.972000	   -0.400000	   -0.070000	   -0.140000	   17.218750
    7.0020	 -0.002000	  0.051000	  0.990000	   -0.020000	   -0.340000	    0.090000	   17.242188
    7.0120	  0.001000	  0.032500	  1.009500	   -0.530000	   -0.120000	   -0.140000	   17.234375
    7.0220	 -0.001500	  0.051000	  0.997500	    0.300000	    0.240000	    0.000000	   17.218750
    7.0320	  0.013500	  0.028500	  0.977000	   -0.320000	    0.210000	   -0.120000	   17.210938
    7.0420	  0.006500	  0.052000	  0.989000	   -0.120000	   -0.440000	    0.160000	   17.218750
    7.0520	  0.000000	  0.031000	  1.015500	   -0.330000	   -0.010000	   -0.060000	   17.234375
    7.0623	 -0.001000	  0.058000	  0.984000	    0.280000	    0.130000	    0.080000	   17.238281
    7.0720	  0.009000	  0.030000	  0.963000	   -0.330000	   -0.080000	   -0.020000	   17.222656
    7.0820	  0.005500	  0.052000	  0.998500	   -0.060000	   -0.280000	    0.160000	   17.207031
    7.0920	  0.010500	  0.027000	  1.003000	   -0.470000	    0.080000	   -0.020000	   17.214844
    7.1020	  0.004500	  0.054000	  0.981000	    0.190000	    0.140000	    0.100000	   17.218750
    7.1120	  0.010500	  0.029500	  0.976500	   -0.300000	    0.030000	   -0.150000	   17.222656
    7.1221	 -0.027000	  0.048000	  0.988500	   -1.300000	   -0.070000	   -0.240000	   17.214844
    7.1320	  0.016500	  0.026500	  1.001000	    0.570000	    0.020000	    0.270000	   17.218750
    7.1420	  0.012500	  0.061000	  1.012500	    0.030000	    0.420000	   -0.160000	   17.234375
    7.1520	  0.023500	  0.033500	  0.983000	   -0.030000	    0.020000	    0.120000	   17.238281
    7.1620	 -0.008000	  0.050000	  0.966000	   -0.310000	   -0.220000	    0.070000	   17.238281
    7.1720	 -0.011500	  0.040000	  1.018000	   -0.620000	   -0.260000	   -0.090000	   17.234375
    7.1820	 -0.002000	  0.042000	  0.976500	   -0.350000	    0.350000	   -0.050000	   17.230469
    7.1920	  0.017000	  0.035000	  0.964000	   -0.540000	    0.120000	   -0.200000	   17.230469
    7.2020	  0.018500	  0.040500	  0.981500	   -0.240000	   -0.270000	    0.040000	   17.226563
    7.2120	  0.006500	  0.035500	  1.017500	   -0.400000	   -0.310000	   -0.060000	   17.234375
    7.2221	 -0.007500	  0.054000	  0.999000	    0.230000	    0.030000	    0.110000	   17.234375
    7.2320	 -0.009000	  0.035500	  0.977500	   -0.390000	    0.220000	   -0.110000	   17.242188
    7.2420	 -0.004000	  0.046500	  0.978000	    0.210000	    0.090000	    0.090000	   17.253906
    7.2520	  0.000000	  0.037000	  1.010500	   -0.290000	    0.170000	   -0.100000	   17.238281
    7.2620	  0.010000	  0.051000	  0.989500	    0.110000	    0.440000	   -0.050000	   17.234375
    7.2720	  0.015000	  0.031000	  0.962000	   -0.190000	    0.060000	   -0.050000	   17.234375
    7.2820	  0.010500	  0.049500	  0.991000	    0.030000	   -0.430000	    0.140000	   17.238281
    7.2920	 -0.003500	  0.036000	  1.015000	   -0.350000	   -0.060000	   -0.130000	   17.246094
    7.3020	 -0.001000	  0.056000	  0.988500	   -0.010000	    0.220000	    0.040000	   17.234375
    7.3120	  0.012500	  0.031000	  0.972000	   -0.510000	    0.190000	   -0.040000	   17.222656
    7.3221	  0.006000	  0.049000	  0.994000	    0.170000	   -0.410000	    0.130000	   17.226563
    7.3320	  0.005000	  0.030500	  1.012500	   -0.390000	   -0.080000	   -0.190000	   17.238281
    7.3420	  0.006500	  0.052000	  0.983500	    0.200000	    0.340000	    0.010000	   17.269531
    7.3520	  0.011000	  0.035000	  0.967000	   -0.360000	    0.080000	   -0.170000	   17.246094
    7.3620	  0.011000	  0.046500	  0.997000	   -0.190000	   -0.310000	    0.000000	   17.226563
    7.3720	  0.000500	  0.036500	  1.011000	   -0.550000	    0.040000	   -0.160000	   17.226563
    7.3820	  0.001000	  0.051000	  0.976500	   -0.110000	    0.290000	   -0.070000	   17.257813
    7.3920	 -0.002000	  0.034500	  0.986000	   -0.560000	    0.120000	   -0.230000	   17.238281
    7.4020	  0.004500	  0.047000	  0.988000	   -0.670000	    0.060000	    0.010000	   17.222656
    7.4120	 -0.000500	  0.033500	  1.003500	   -0.720000	    0.130000	   -0.060000	   17.218750
    7.4221	  0.005500	  0.049500	  1.005500	   -0.260000	    0.420000	   -0.100000	   17.226563
    7.4320	  0.008500	  0.033000	  0.963000	   -0.820000	    0.330000	   -0.160000	   17.246094
    7.4420	  0.003500	  0.048500	  0.985000	   -0.540000	   -0.330000	    0.000000	   17.222656
    7.4520	 -0.001000	  0.033000	  1.009000	   -0.560000	   -0.240000	   -0.140000	   17.207031
    7.4620	  0.000000	  0.048500	  0.985500	    0.350000	    0.200000	    0.100000	   17.210938
    7.4720	  0.007500	  0.035000	  0.973000	    0.050000	    0.200000	   -0.060000	   17.210938
    7.4820	  0.005000	  0.045000	  0.981000	    0.130000	   -0.040000	    0.090000	   17.226563
    7.4920	 -0.002500	  0.036500	  1.011500	   -0.360000	    0.010000	   -0.080000	   17.222656
    7.5020	  0.002000	  0.050500	  0.991000	   -0.470000	    0.370000	   -0.040000	   17.246094
    7.5120	  0.006500	  0.035000	  0.976000	   -0.940000	    0.330000	   -0.140000	   17.226563
    7.5221	  0.006500	  0.045500	  0.991500	   -0.710000	   -0.070000	   -0.110000	   17.238281
    7.5320	  0.007000	  0.032000	  1.008000	   -0.080000	    0.000000	   -0.110000	   17.234375
    7.5420	  0.003000	  0.058000	  0.989500	    0.540000	    0.090000	    0.030000	   17.246094
    7.5520	  0.008500	  0.034500	  0.974500	   -0.110000	    0.140000	   -0.090000	   17.253906
    7.5620	 -0.001000	  0.054500	  0.995000	   -0.650000	    0.110000	   -0.140000	   17.230469
    7.5720	  0.006500	  0.025000	  0.984000	   -1.250000	    0.030000	   -0.230000	   17.242188
    7.5820	  0.000000	  0.049500	  0.981500	   -0.180000	    0.120000	   -0.020000	   17.253906
    7.5920	  0.003000	  0.025000	  0.981000	   -0.160000	   -0.130000	   -0.110000	   17.242188
    7.6020	 -0.009000	  0.048000	  0.995000	    0.600000	   -0.230000	    0.160000	   17.242188
    7.6120	 -0.001500	  0.031000	  1.014000	    0.610000	    0.040000	   -0.010000	   17.242188
    7.6221	  0.006500	  0.058000	  1.001500	    0.680000	    0.660000	   -0.060000	   17.250000
    7.6320	  0.021000	  0.033000	  0.963000	   -0.490000	    0.450000	   -0.120000	   17.250000
    7.6420	  0.013500	  0.050000	  0.976000	   -0.600000	   -0.070000	   -0.010000	   17.246094
    7.6521	  0.002000	  0.030500	  1.005500	   -0.610000	   -0.350000	   -0.040000	   17.222656
    7.6620	 -0.008000	  0.045000	  0.991000	   -0.030000	   -0.120000	    0.080000	   17.222656
    7.6720	 -0.001500	  0.031000	  0.969000	   -0.070000	   -0.030000	    0.010000	   17.222656
    7.6820	 -0.004500	  0.044000	  0.983000	    0.320000	   -0.370000	   -0.040000	   17.210938
    7.6920	  0.000500	  0.033000	  1.027000	    0.370000	   -0.060000	    0.040000	   17.222656
    7.7020	  0.001500	  0.060000	  0.996500	    0.030000	    0.550000	   -0.050000	   17.253906
    7.7120	  0.019000	  0.027000	  0.967000	   -0.640000	    0.220000	   -0.160000	   17.265625
    7.7221	  0.017500	  0.050000	  0.983000	   -0.140000	   -0.250000	    0.080000	   17.238281
    7.7320	  0.004500	  0.030000	  1.003000	   -0.100000	   -0.530000	   -0.010000	   17.250000
    7.7420	 -0.002000	  0.047500	  0.992000	    0.890000	   -0.040000	    0.200000	   17.253906
    7.7521	  0.005000	  0.030500	  0.965000	    0.970000	    0.030000	    0.110000	   17.269531
    7.7620	  0.008500	  0.046500	  0.990000	    1.350000	   -0.470000	    0.330000	   17.261719
    7.7720	  0.021500	  0.034000	  1.015000	    0.920000	   -0.070000	    0.170000	   17.265625
    7.7820	  0.019000	  0.052000	  0.989500	    1.550000	    0.050000	    0.340000	   17.234375
    7.7921	  0.008000	  0.036000	  0.979500	    0.570000	   -0.290000	    0.160000	   17.214844
    7.8021	 -0.005000	  0.050500	  0.986000	    0.480000	   -0.400000	    0.320000	   17.230469
    7.8121	 -0.009000	  0.035500	  1.013000	   -0.730000	   -0.050000	    0.060000	   17.238281
    7.8221	  0.003500	  0.063500	  1.004500	   -1.160000	    0.580000	    0.090000	   17.207031
    7.8320	  0.015500	  0.018500	  0.963000	   -0.960000	    0.410000	   -0.100000	   17.238281
    7.8421	 -0.009000	  0.061500	  0.989000	   -0.080000	   -0.320000	    0.170000	   17.218750
    7.8521	 -0.003500	  0.020000	  1.024000	   -0.490000	    0.260000	   -0.140000	   17.242188
    7.8621	 -0.014500	  0.064000	  0.966500	    0.480000	    0.620000	    0.170000	   17.257813
    7.8721	  0.008000	  0.021000	  0.948000	   -0.300000	   -0.420000	    0.010000	   17.242188
    7.8821	  0.001000	  0.055000	  1.015500	    0.420000	   -0.330000	    0.200000	   17.253906
    7.8921	  0.008500	  0.024500	  0.999000	   -0.030000	   -0.220000	   -0.010000	   17.222656
    7.9021	  0.012000	  0.058500	  0.950500	    0.340000	   -0.490000	    0.030000	   17.234375
    7.9121	  0.005500	  0.029500	  1.013500	    0.320000	   -0.610000	    0.070000	   17.257813
    7.9221	 -0.005000	  0.053000	  1.002500	   -0.280000	   -0.030000	    0.000000	   17.273438
    7.9321	 -0.015500	  0.042000	  0.957000	   -0.240000	   -0.390000	    0.030000	   17.261719
    7.9421	 -0.003500	  0.048500	  1.014500	    0.040000	    0.160000	   -0.100000	   17.265625
    7.9521	  0.018500	  0.032500	  0.987000	   -0.240000	    0.250000	   -0.180000	   17.238281
    7.9621	  0.015500	  0.046500	  0.947500	   -0.260000	   -0.550000	    0.110000	   17.269531
    7.9724	  0.004000	  0.035500	  1.046500	   -0.290000	   -0.340000	   -0.110000	   17.285156
    7.9821	 -0.009000	  0.052000	  1.002000	    0.120000	    0.340000	    0.040000	   17.269531
    7.9921	 -0.004500	  0.031500	  0.938000	   -0.260000	    0.070000	   -0.110000	   17.253906
    8.0021	  0.005000	  0.053000	  1.008500	    0.180000	   -0.130000	    0.010000	   17.265625
    8.0121	  0.024000	  0.029000	  1.017500	   -0.490000	    0.050000	   -0.060000	   17.269531
    8.0221	  0.011500	  0.062500	  0.962500	    0.190000	    0.030000	    0.040000	   17.285156
    8.0321	  0.011000	  0.026000	  0.970000	   -0.140000	   -0.120000	   -0.040000	   17.269531
    8.0421	 -0.013500	  0.057000	  0.998500	   -0.280000	   -0.210000	    0.070000	   17.242188
    8.0521	 -0.001000	  0.025000	  0.985500	   -0.450000	    0.040000	   -0.100000	   17.250000
    8.0621	  0.005000	  0.060000	  1.002500	    0.040000	    0.520000	    0.210000	   17.277344
    8.0721	  0.025000	  0.022500	  0.984000	   -0.260000	    0.100000	   -0.100000	   17.281250
    8.0821	  0.001000	  0.054500	  0.993000	   -0.250000	   -0.290000	    0.060000	   17.265625
    8.0921	 -0.004000	  0.030000	  1.014500	   -0.180000	   -0.070000	    0.040000	   17.285156
    8.1021	 -0.011000	  0.056000	  0.995000	   -0.110000	    0.380000	    0.140000	   17.292969
    8.1121	  0.014500	  0.026500	  0.950500	   -0.270000	    0.130000	   -0.010000	   17.257813
    8.1221	  0.008000	  0.052500	  0.996000	   -0.030000	   -0.150000	    0.130000	   17.285156
    8.1321	  0.003000	  0.027500	  1.020500	   -0.360000	   -0.010000	    0.040000	   17.269531
    8.1421	 -0.004500	  0.052000	  0.970500	   -0.050000	    0.320000	    0.110000	   17.246094
    8.1521	  0.007000	  0.030500	  0.972000	   -0.130000	    0.130000	    0.070000	   17.269531
    8.1621	 -0.005000	  0.051500	  1.007000	   -0.240000	   -0.270000	    0.070000	   17.261719
    8.1721	  0.008500	  0.034500	  1.005000	   -0.300000	    0.170000	    0.030000	   17.285156
    8.1821	  0.011500	  0.055500	  0.996000	    0.200000	    0.380000	    0.060000	   17.285156
    8.1921	  0.013000	  0.028000	  0.977000	   -0.310000	   -0.090000	   -0.120000	   17.289063
    8.2021	 -0.005500	  0.057500	  0.981000	   -0.020000	   -0.200000	    0.090000	   17.285156
    8.2121	  0.004000	  0.033000	  1.013500	   -0.210000	    0.000000	   -0.130000	   17.300781
    8.2221	  0.008000	  0.051500	  0.994500	    0.130000	    0.170000	    0.080000	   17.253906
    8.2321	  0.016500	  0.029500	  0.961000	   -0.220000	   -0.180000	    0.010000	   17.257813
    8.2421	  0.008000	  0.052000	  0.994000	    0.020000	   -0.430000	    0.170000	   17.242188
    8.2521	 -0.002500	  0.035000	  1.015500	   -0.360000	   -0.330000	    0.030000	   17.257813
    8.2621	 -0.002500	  0.060000	  0.986500	    0.210000	    0.140000	    0.040000	   17.285156
    8.2721	  0.004500	  0.029500	  0.973000	   -0.170000	    0.080000	   -0.060000	   17.277344
    8.2821	  0.002500	  0.054500	  0.997500	    0.040000	   -0.280000	   -0.010000	   17.277344
    8.2921	  0.016500	  0.027500	  1.001000	   -0.280000	   -0.060000	   -0.090000	   17.261719
    8.3021	  0.015500	  0.057500	  0.986000	    0.200000	    0.220000	   -0.040000	   17.265625
    8.3121	  0.019000	  0.026500	  0.971000	   -0.320000	   -0.180000	   -0.180000	   17.257813
    8.3221	 -0.002000	  0.058000	  1.007500	   -0.110000	   -0.500000	    0.100000	   17.246094
    8.3321	 -0.013000	  0.027500	  1.000000	   -0.280000	   -0.220000	   -0.120000	   17.257813
    8.3421	 -0.011500	  0.056500	  0.989000	    0.220000	    0.190000	    0.010000	   17.277344
    8.3521	  0.008000	  0.024000	  0.974000	   -0.190000	    0.060000	   -0.020000	   17.289063
    8.3621	 -0.018500	  0.057000	  0.996500	   -0.130000	   -0.040000	    0.070000	   17.277344
    8.3721	  0.002000	  0.019500	  1.010500	   -0.330000	    0.400000	   -0.040000	   17.273438
    8.3821	  0.021000	  0.052500	  0.991500	    0.050000	    0.640000	    0.130000	   17.269531
    8.3921	  0.023000	  0.026000	  0.960000	   -0.090000	    0.240000	    0.020000	   17.269531
    8.4021	  0.003500	  0.054000	  1.004000	   -0.180000	   -0.280000	    0.050000	   17.273438
    8.4121	 -0.002500	  0.030000	  1.004000	   -0.290000	    0.180000	   -0.030000	   17.257813
    8.4221	 -0.005500	  0.055500	  0.976000	    0.100000	    0.310000	    0.060000	   17.253906
    8.4321	  0.018000	  0.023000	  0.982500	   -0.180000	    0.290000	   -0.010000	   17.265625
    8.4421	  0.004500	  0.053500	  0.992500	   -0.120000	   -0.170000	    0.100000	   17.257813
    8.4521	 -0.008000	  0.025500	  1.003500	   -0.250000	    0.120000	    0.030000	   17.269531
    8.4621	 -0.005500	  0.055000	  0.999500	    0.230000	    0.680000	    0.130000	   17.273438
    8.4721	  0.003000	  0.024000	  0.956000	   -0.040000	    0.600000	   -0.030000	   17.277344
    8.4821	 -0.003500	  0.060500	  0.996000	   -0.110000	    0.190000	    0.130000	   17.289063
    8.4921	  0.011500	  0.027500	  1.011500	   -0.250000	    0.310000	    0.030000	   17.277344
    8.5021	  0.015500	  0.063000	  0.987500	    0.150000	    0.540000	    0.090000	   17.285156
    8.5121	  0.020500	  0.024000	  0.956500	    0.010000	    0.250000	   -0.010000	   17.285156
    8.5221	 -0.009500	  0.058000	  1.001000	    0.030000	   -0.110000	    0.100000	   17.277344
    8.5321	 -0.010500	  0.023000	  1.002000	   -0.230000	    0.330000	   -0.120000	   17.281250
    8.5421	  0.004000	  0.058500	  0.983000	    0.300000	    0.600000	    0.070000	   17.269531
    8.5521	  0.014000	  0.024000	  0.976000	   -0.110000	    0.280000	   -0.140000	   17.269531
    8.5621	  0.000000	  0.057500	  1.005000	   -0.040000	   -0.130000	    0.040000	   17.253906
    8.5721	 -0.002000	  0.029500	  1.006500	   -0.070000	    0.080000	   -0.090000	   17.281250
    8.5821	 -0.003500	  0.064500	  0.991000	    0.120000	    0.410000	    0.050000	   17.304688
    8.5921	  0.006500	  0.026000	  0.952500	    0.000000	    0.140000	   -0.040000	   17.296875
    8.6021	 -0.005000	  0.057500	  0.995000	   -0.060000	   -0.220000	    0.050000	   17.296875
    8.6121	 -0.002500	  0.025000	  1.005500	   -0.290000	   -0.100000	    0.000000	   17.285156
    8.6221	  0.002000	  0.054500	  0.980000	    0.220000	    0.380000	    0.020000	   17.277344
    8.6321	 -0.003000	  0.028000	  0.960500	   -0.020000	    0.020000	   -0.090000	   17.304688
    8.6421	 -0.008000	  0.060000	  1.008000	   -0.120000	   -0.260000	    0.090000	   17.300781
    8.6521	  0.011000	  0.028000	  1.005000	   -0.290000	    0.190000	    0.010000	   17.289063
    8.6621	  0.013500	  0.062500	  0.984000	    0.060000	    0.190000	    0.020000	   17.292969
    8.6721	  0.013500	  0.027500	  0.971000	   -0.130000	   -0.160000	    0.020000	   17.285156
    8.6821	 -0.005500	  0.061000	  0.990000	   -0.150000	   -0.320000	    0.170000	   17.300781
    8.6921	 -0.017500	  0.032500	  0.996500	   -0.280000	   -0.250000	   -0.110000	   17.304688
    8.7021	 -0.009500	  0.057000	  0.989500	    0.020000	    0.210000	    0.070000	   17.277344
    8.7121	  0.017500	  0.024500	  0.961500	   -0.010000	    0.070000	   -0.050000	   17.285156
    8.7221	  0.005500	  0.056000	  0.996000	   -0.240000	   -0.510000	    0.030000	   17.292969
    8.7321	  0.001000	  0.029500	  1.016000	   -0.320000	   -0.300000	   -0.090000	   17.296875
    8.7421	 -0.007000	  0.064000	  0.991500	    0.180000	    0.130000	    0.040000	   17.296875
    8.7521	 -0.001000	  0.024000	  0.964000	   -0.130000	   -0.080000	   -0.030000	   17.304688
    8.7621	 -0.011500	  0.060000	  0.992500	   -0.140000	   -0.260000	    0.070000	   17.312500
    8.7721	  0.003500	  0.025500	  0.997500	   -0.230000	    0.080000	   -0.110000	   17.304688
    8.7821	  0.013500	  0.060000	  0.987000	    0.040000	    0.250000	   -0.090000	   17.300781
    8.7921	  0.022000	  0.021500	  0.963500	   -0.180000	   -0.080000	   -0.220000	   17.296875
    8.8021	 -0.009500	  0.057000	  0.992500	   -0.040000	   -0.630000	    0.080000	   17.312500
    8.8121	 -0.026500	  0.027500	  1.004000	   -0.270000	    0.090000	   -0.100000	   17.289063
    8.8221	 -0.020500	  0.063000	  0.992000	   -0.050000	    0.590000	    0.020000	   17.281250
    8.8321	  0.027000	  0.023500	  0.970000	   -0.190000	    0.360000	   -0.060000	   17.285156
    8.8421	  0.025000	  0.052500	  0.999000	   -0.230000	   -0.030000	    0.080000	   17.296875
    8.8521	  0.020000	  0.024500	  1.014000	   -0.220000	   -0.420000	   -0.030000	   17.289063
    8.8621	  0.005500	  0.057500	  0.992000	    0.090000	   -0.140000	   -0.020000	   17.273438
    8.8721	 -0.007000	  0.027000	  0.957500	   -0.170000	   -0.290000	   -0.070000	   17.285156
    8.8821	 -0.024500	  0.055500	  0.992000	   -0.230000	   -0.460000	    0.110000	   17.304688
    8.8921	 -0.003000	  0.027500	  1.008500	   -0.340000	    0.250000	   -0.030000	   17.316406
    8.9021	  0.022000	  0.055500	  0.983500	    0.100000	    0.300000	    0.130000	   17.332031
    8.9121	  0.020000	  0.023000	  0.979500	   -0.170000	    0.020000	   -0.050000	   17.316406
    8.9221	 -0.005500	  0.057000	  0.990500	   -0.120000	   -0.120000	    0.160000	   17.316406
    8.9321	 -0.007000	  0.027500	  1.010500	   -0.380000	   -0.180000	   -0.140000	   17.308594
    8.9421	  0.006500	  0.060000	  0.999500	    0.130000	    0.400000	    0.050000	   17.304688
    8.9521	  0.027500	  0.025000	  0.958000	   -0.080000	    0.150000	   -0.030000	   17.324219
    8.9621	  0.012000	  0.059000	  1.002500	    0.090000	   -0.360000	    0.030000	   17.316406
    8.9725	  0.000500	  0.029500	  1.010000	   -0.210000	   -0.070000	   -0.090000	   17.285156
    8.9821	 -0.004500	  0.063000	  0.982500	    0.130000	    0.170000	   -0.100000	   17.285156
    8.9921	  0.011500	  0.023500	  0.969500	   -0.160000	   -0.130000	   -0.100000	   17.312500
    9.0021	  0.007500	  0.053500	  0.996500	   -0.180000	   -0.240000	    0.010000	   17.332031
    9.0121	  0.000500	  0.025500	  1.002500	   -0.520000	   -0.100000	   -0.100000	   17.328125
    9.0222	  0.015000	  0.056000	  1.002000	    0.220000	    0.240000	   -0.020000	   17.324219
    9.0321	  0.014500	  0.025000	  0.971000	   -0.100000	   -0.110000	   -0.030000	   17.285156
    9.0421	 -0.002500	  0.053500	  0.993000	   -0.020000	   -0.520000	    0.120000	   17.289063
    9.0521	 -0.014000	  0.030000	  1.014000	   -0.260000	   -0.180000	   -0.110000	   17.316406
    9.0621	 -0.003500	  0.057500	  0.984500	    0.020000	    0.420000	    0.050000	   17.324219
    9.0721	 -0.000500	  0.029000	  0.963500	   -0.070000	    0.350000	   -0.180000	   17.328125
    9.0821	  0.015500	  0.048500	  0.997000	   -0.180000	    0.020000	   -0.040000	   17.328125
    9.0921	  0.014500	  0.026000	  1.007000	   -0.390000	   -0.110000	   -0.030000	   17.296875
    9.1021	  0.020000	  0.049500	  0.993000	    0.210000	    0.130000	    0.100000	   17.289063
    9.1121	  0.010000	  0.031000	  0.976500	    0.040000	   -0.060000	   -0.070000	   17.304688
    9.1222	 -0.010000	  0.054500	  0.995000	   -0.040000	   -0.580000	    0.030000	   17.300781
    9.1321	  0.004000	  0.031500	  1.008500	   -0.090000	    0.090000	    0.040000	   17.300781
    9.1421	  0.015000	  0.056500	  0.987500	    0.330000	    0.250000	    0.010000	   17.316406
    9.1521	  0.025500	  0.030500	  0.972000	   -0.230000	   -0.230000	   -0.150000	   17.320313
    9.1621	  0.004500	  0.053500	  0.994000	   -0.070000	   -0.550000	    0.210000	   17.328125
    9.1721	 -0.005500	  0.031000	  1.007500	   -0.250000	   -0.330000	   -0.090000	   17.300781
    9.1821	  0.006500	  0.051000	  0.989000	    0.230000	    0.040000	   -0.070000	   17.281250
    9.1921	  0.000000	  0.028000	  0.968500	   -0.060000	    0.110000	   -0.160000	   17.273438
    9.2021	 -0.010000	  0.053500	  0.991500	   -0.030000	   -0.450000	    0.130000	   17.277344
    9.2121	 -0.015500	  0.031500	  1.013500	   -0.240000	    0.200000	   -0.120000	   17.335938
    9.2222	  0.009000	  0.056000	  0.993000	    0.140000	    0.600000	    0.030000	   17.324219
    9.2321	  0.027000	  0.027000	  0.966500	   -0.250000	    0.280000	   -0.120000	   17.292969
    9.2421	  0.009000	  0.054500	  0.991500	    0.100000	   -0.220000	    0.130000	   17.300781
    9.2521	 -0.004500	  0.030000	  1.003500	   -0.360000	   -0.100000	   -0.100000	   17.316406
    9.2621	 -0.001500	  0.056500	  0.988500	    0.210000	    0.360000	    0.100000	   17.308594
    9.2721	  0.012000	  0.029500	  0.967000	   -0.080000	    0.240000	   -0.070000	   17.324219
    9.2821	 -0.001000	  0.051500	  0.991000	   -0.010000	   -0.200000	    0.160000	   17.316406
    9.2921	 -0.004500	  0.030500	  1.016500	   -0.330000	   -0.050000	   -0.130000	   17.316406
    9.3021	  0.008000	  0.058000	  0.998500	    0.150000	    0.290000	    0.130000	   17.308594
    9.3121	  0.017000	  0.029500	  0.966500	   -0.040000	    0.190000	   -0.180000	   17.312500
    9.3222	 -0.001500	  0.056500	  0.994500	   -0.010000	   -0.420000	    0.110000	   17.320313
    9.3321	 -0.007500	  0.030500	  1.004000	   -0.260000	   -0.070000	   -0.080000	   17.304688
    9.3421	 -0.001500	  0.059000	  0.988500	    0.220000	    0.200000	    0.070000	   17.292969
    9.3521	  0.021500	  0.030000	  0.964500	    0.050000	    0.170000	   -0.110000	   17.316406
    9.3621	  0.011000	  0.050500	  0.989500	    0.010000	   -0.530000	    0.140000	   17.304688
    9.3721	 -0.008500	  0.032500	  1.008500	   -0.230000	   -0.190000	   -0.110000	   17.324219
    9.3821	 -0.006000	  0.054000	  0.980500	    0.160000	    0.240000	    0.170000	   17.320313
    9.3921	 -0.008500	  0.033500	  0.972000	   -0.090000	    0.160000	   -0.020000	   17.300781
    9.4021	 -0.011500	  0.055000	  0.996500	    0.020000	    0.090000	    0.040000	   17.320313
    9.4121	 -0.008500	  0.030000	  1.009000	   -0.320000	    0.320000	   -0.020000	   17.324219
    9.4222	  0.008500	  0.055500	  0.989500	    0.080000	    0.620000	    0.120000	   17.324219
    9.4321	  0.015000	  0.032000	  0.966500	   -0.110000	    0.470000	   -0.090000	   17.332031
    9.4421	 -0.000500	  0.055500	  0.986500	   -0.060000	   -0.130000	    0.040000	   17.324219
    9.4521	 -0.007000	  0.035500	  1.005000	   -0.260000	    0.110000	    0.010000	   17.304688
    9.4621	  0.001500	  0.057500	  0.987000	    0.110000	    0.470000	    0.070000	   17.292969
    9.4721	  0.013000	  0.031000	  0.961000	   -0.040000	    0.240000	   -0.070000	   17.316406
    9.4821	  0.007500	  0.054000	  0.993500	   -0.090000	   -0.350000	    0.020000	   17.320313
    9.4921	  0.003000	  0.030000	  1.009500	   -0.300000	   -0.060000	   -0.060000	   17.324219
    9.5021	  0.011500	  0.053000	  0.983000	    0.160000	    0.160000	   -0.030000	   17.347656
    9.5121	  0.007500	  0.030000	  0.967000	   -0.150000	   -0.010000	   -0.130000	   17.351563
    9.5222	 -0.011000	  0.057000	  0.992500	   -0.140000	   -0.410000	    0.040000	   17.332031
    9.5321	 -0.014000	  0.036000	  1.003000	   -0.380000	   -0.080000	   -0.010000	   17.308594
    9.5421	 -0.005500	  0.056000	  0.990000	   -0.040000	    0.150000	   -0.010000	   17.289063
    9.5521	  0.003500	  0.031000	  0.969500	   -0.100000	    0.130000	   -0.070000	   17.320313
    9.5621	  0.001000	  0.048500	  0.977500	    0.010000	   -0.250000	   -0.010000	   17.320313
    9.5721	 -0.010000	  0.029000	  1.009500	   -0.280000	   -0.020000	   -0.030000	   17.312500
    9.5821	 -0.007500	  0.053000	  0.989000	    0.040000	    0.390000	    0.100000	   17.304688
    9.5921	  0.006000	  0.030000	  0.968500	   -0.250000	    0.340000	   -0.110000	   17.300781
    9.6021	  0.001500	  0.052500	  0.995000	   -0.070000	   -0.050000	   -0.020000	   17.332031
    9.6121	  0.011000	  0.030000	  1.009000	   -0.280000	    0.090000	   -0.100000	   17.324219
    9.6222	  0.014500	  0.060500	  0.983500	    0.190000	    0.170000	    0.160000	   17.316406
    9.6321	  0.016500	  0.030000	  0.972500	   -0.150000	   -0.310000	   -0.070000	   17.312500
    9.6421	 -0.003000	  0.057500	  0.992500	   -0.010000	   -0.490000	    0.130000	   17.324219
    9.6522	 -0.011500	  0.027500	  1.000000	   -0.470000	   -0.330000	   -0.120000	   17.320313
    9.6621	 -0.002000	  0.056500	  0.991000	    0.070000	   -0.030000	    0.160000	   17.324219
    9.6721	  0.008000	  0.026000	  0.971000	   -0.330000	   -0.090000	   -0.120000	   17.332031
    9.6821	 -0.002500	  0.058000	  0.994500	   -0.070000	   -0.520000	    0.060000	   17.332031
    9.6921	 -0.003000	  0.030000	  1.014500	   -0.270000	   -0.080000	   -0.030000	   17.320313
    9.7021	  0.001000	  0.062000	  0.989500	    0.110000	    0.260000	    0.070000	   17.328125
    9.7121	  0.006500	  0.030000	  0.957500	   -0.200000	    0.010000	   -0.170000	   17.328125
    9.7222	 -0.001000	  0.057500	  0.999000	   -0.070000	   -0.310000	    0.030000	   17.328125
    9.7321	  0.000500	  0.027000	  1.002500	   -0.420000	    0.160000	   -0.110000	   17.343750
    9.7422	  0.001000	  0.052500	  0.973500	    0.190000	    0.390000	   -0.090000	   17.332031
    9.7522	  0.012000	  0.026000	  0.973500	   -0.340000	   -0.060000	   -0.180000	   17.328125
    9.7622	  0.004000	  0.051500	  0.995000	   -0.140000	   -0.450000	    0.030000	   17.320313
    9.7722	 -0.000500	  0.032500	  1.013000	   -0.350000	   -0.270000	   -0.160000	   17.332031
    9.7822	 -0.003000	  0.058000	  0.999500	    0.070000	    0.240000	    0.030000	   17.312500
    9.7922	  0.006000	  0.030000	  0.961500	   -0.180000	   -0.070000	   -0.020000	   17.347656
    9.8022	 -0.007500	  0.055000	  0.982000	   -0.130000	   -0.510000	    0.030000	   17.359375
    9.8122	 -0.002500	  0.030500	  1.011000	   -0.410000	   -0.060000	   -0.160000	   17.328125
    9.8222	  0.005000	  0.052500	  0.979000	    0.120000	    0.370000	    0.000000	   17.328125
    9.8322	  0.014500	  0.028500	  0.962500	   -0.320000	   -0.030000	   -0.050000	   17.335938
    9.8422	 -0.001000	  0.053000	  0.995500	   -0.230000	   -0.420000	    0.080000	   17.335938
    9.8522	 -0.002500	  0.030500	  1.004500	   -0.290000	    0.000000	   -0.070000	   17.343750
    9.8622	  0.003500	  0.056500	  0.988000	    0.210000	    0.300000	   -0.030000	   17.332031
    9.8722	  0.009500	  0.031000	  0.979000	   -0.090000	    0.080000	    0.000000	   17.320313
    9.8822	  0.000000	  0.048000	  0.988000	   -0.080000	   -0.150000	   -0.040000	   17.335938
    9.8922	 -0.009500	  0.031500	  1.008000	   -0.280000	    0.050000	   -0.180000	   17.363281
    9.9022	  0.008500	  0.055000	  0.991000	    0.270000	    0.490000	   -0.010000	   17.343750
    9.9122	  0.016500	  0.031000	  0.954500	   -0.180000	    0.220000	   -0.180000	   17.324219
    9.9222	  0.000000	  0.055000	  1.001500	   -0.100000	   -0.350000	    0.130000	   17.359375
    9.9322	  0.001000	  0.028500	  1.010500	   -0.440000	    0.080000	   -0.080000	   17.351563
    9.9422	  0.004500	  0.060000	  0.982500	    0.110000	    0.170000	    0.060000	   17.324219
    9.9522	  0.013500	  0.026000	  0.978000	   -0.310000	   -0.100000	   -0.160000	   17.332031
    9.9622	  0.004000	  0.052500	  0.992000	   -0.010000	   -0.210000	    0.040000	   17.355469
    9.9725	  0.002500	  0.026000	  1.010500	   -0.420000	   -0.440000	   -0.070000	   17.324219
    9.9822	  0.011500	  0.056500	  0.998000	    0.100000	    0.230000	   -0.030000	   17.320313
    9.9922	  0.013000	  0.027000	  0.954000	   -0.210000	   -0.230000	   -0.150000	   17.320313
   10.0022	 -0.011500	  0.056000	  1.005500	   -0.260000	   -0.800000	    0.090000	   17.328125
   10.0122	 -0.022000	  0.032000	  1.010000	   -0.260000	    0.080000	   -0.050000	   17.355469
   10.0222	 -0.016500	  0.057000	  0.970500	    0.180000	    0.560000	    0.010000	   17.335938
   10.0322	  0.010000	  0.029000	  0.969500	   -0.200000	    0.340000	   -0.060000	   17.308594
   10.0422	  0.012000	  0.052500	  0.995500	   -0.040000	    0.160000	   -0.010000	   17.332031
   10.0522	  0.022000	  0.028500	  1.009000	   -0.350000	   -0.040000	   -0.140000	   17.335938
   10.0622	  0.016500	  0.054000	  1.002500	    0.410000	    0.160000	    0.080000	   17.343750
   10.0722	  0.014500	  0.028000	  0.969000	   -0.220000	   -0.120000	   -0.040000	   17.335938
   10.0822	 -0.011000	  0.053500	  0.987500	   -0.180000	   -0.620000	    0.040000	   17.343750
   10.0922	 -0.006000	  0.030000	  1.011500	   -0.370000	   -0.170000	   -0.030000	   17.347656
   10.1022	  0.004000	  0.061000	  0.983500	    0.070000	    0.170000	    0.060000	   17.343750
   10.1122	  0.016000	  0.026500	  0.966000	   -0.290000	   -0.310000	   -0.040000	   17.363281
   10.1222	  0.002000	  0.058500	  1.003000	   -0.120000	   -0.410000	    0.120000	   17.355469
   10.1322	 -0.005000	  0.023500	  0.999500	   -0.280000	   -0.060000	   -0.120000	   17.375000
   10.1422	 -0.001500	  0.060500	  0.991000	    0.180000	    0.080000	   -0.010000	   17.343750
   10.1522	  0.018000	  0.022000	  0.974500	   -0.320000	   -0.130000	   -0.090000	   17.363281
   10.1622	  0.006500	  0.059000	  0.998000	   -0.060000	   -0.250000	   -0.060000	   17.378906
   10.1722	  0.007000	  0.024000	  1.009000	   -0.300000	   -0.130000	   -0.110000	   17.339844
   10.1822	  0.007500	  0.066500	  0.990000	    0.190000	    0.180000	    0.050000	   17.343750
   10.1922	  0.011000	  0.025500	  0.957500	   -0.360000	   -0.240000	   -0.100000	   17.351563
   10.2022	  0.001000	  0.060500	  1.010000	    0.110000	   -0.350000	   -0.030000	   17.335938
   10.2122	  0.012500	  0.021500	  0.996500	   -0.260000	   -0.030000	   -0.150000	   17.320313
   10.2222	  0.009000	  0.055500	  0.982500	    0.140000	    0.010000	   -0.010000	   17.320313
   10.2322	  0.012500	  0.021500	  0.976500	   -0.130000	   -0.320000	   -0.070000	   17.347656
   10.2422	 -0.008000	  0.056000	  0.995500	   -0.010000	   -0.560000	    0.140000	   17.375000
   10.2522	 -0.010500	  0.028500	  1.016500	   -0.290000	   -0.410000	    0.020000	   17.390625
   10.2622	 -0.004500	  0.061000	  1.001000	    0.130000	    0.380000	   -0.070000	   17.371094
   10.2722	  0.013000	  0.024000	  0.953000	   -0.180000	    0.120000	   -0.120000	   17.363281
   10.2822	  0.002500	  0.056500	  0.997500	   -0.090000	   -0.280000	    0.000000	   17.351563
   10.2922	  0.005000	  0.027500	  1.009000	   -0.210000	    0.210000	   -0.190000	   17.332031
   10.3022	  0.005500	  0.055500	  0.977500	    0.180000	    0.440000	    0.020000	   17.339844
   10.3122	  0.013000	  0.025000	  0.970000	   -0.170000	    0.020000	   -0.020000	   17.363281
   10.3222	 -0.003500	  0.055500	  0.998000	   -0.190000	   -0.230000	    0.160000	   17.378906
   10.3322	 -0.001500	  0.028000	  1.000500	   -0.340000	    0.100000	   -0.050000	   17.378906
   10.3422	 -0.004000	  0.062500	  1.000500	    0.100000	    0.460000	    0.010000	   17.367188
   10.3522	  0.010000	  0.025000	  0.970000	   -0.100000	    0.360000	   -0.070000	   17.347656
   10.3622	  0.007500	  0.057000	  0.997000	   -0.180000	   -0.020000	    0.070000	   17.371094
   10.3722	  0.012000	  0.024500	  1.010500	   -0.340000	    0.140000	   -0.070000	   17.375000
   10.3822	  0.007000	  0.060500	  0.986500	    0.200000	    0.500000	    0.070000	   17.324219
   10.3922	  0.010500	  0.028000	  0.960500	   -0.320000	    0.060000	    0.040000	   17.335938
   10.4022	 -0.005000	  0.056500	  1.002000	   -0.080000	   -0.010000	    0.110000	   17.343750
   10.4122	 -0.007500	  0.028500	  1.002500	   -0.320000	    0.170000	   -0.070000	   17.367188
   10.4222	  0.004000	  0.062500	  0.986000	    0.090000	    0.590000	   -0.090000	   17.347656
   10.4322	  0.017500	  0.025000	  0.978000	   -0.190000	    0.200000	   -0.090000	   17.347656
   10.4422	  0.003000	  0.056500	  1.001500	   -0.280000	   -0.100000	    0.070000	   17.363281
   10.4522	  0.001000	  0.024500	  1.006000	   -0.210000	    0.190000	   -0.130000	   17.371094
   10.4622	  0.012000	  0.057000	  0.988000	    0.140000	    0.650000	    0.090000	   17.386719
   10.4722	  0.011500	  0.026500	  0.963000	   -0.170000	    0.070000	   -0.030000	   17.359375
   10.4822	 -0.003500	  0.058000	  1.005000	   -0.110000	   -0.200000	    0.080000	   17.339844
   10.4922	 -0.006500	  0.029500	  1.004500	   -0.240000	    0.250000	   -0.210000	   17.343750
   10.5022	 -0.002500	  0.056000	  0.986500	    0.100000	    0.400000	    0.030000	   17.363281
   10.5122	  0.010500	  0.029000	  0.972000	   -0.050000	    0.310000	   -0.110000	   17.359375
   10.5222	  0.001000	  0.051500	  0.992000	   -0.160000	   -0.140000	   -0.040000	   17.375000
   10.5322	  0.004000	  0.027000	  1.019000	   -0.310000	    0.210000	   -0.080000	   17.367188
   10.5422	  0.008000	  0.050500	  0.988500	    0.030000	    0.500000	    0.050000	   17.378906
   10.5522	  0.007000	  0.028000	  0.964500	   -0.150000	    0.000000	   -0.070000	   17.367188
   10.5622	 -0.005500	  0.055000	  1.000500	   -0.060000	   -0.190000	    0.140000	   17.351563
   10.5722	 -0.003500	  0.032000	  0.999500	   -0.360000	    0.160000	   -0.030000	   17.355469
   10.5822	  0.008500	  0.058000	  0.986500	    0.070000	    0.290000	   -0.010000	   17.378906
   10.5922	  0.017000	  0.027000	  0.973000	   -0.130000	    0.090000	   -0.080000	   17.363281
   10.6022	 -0.004000	  0.054000	  0.988500	   -0.030000	   -0.270000	    0.160000	   17.378906
   10.6122	 -0.006500	  0.026500	  1.008500	   -0.320000	   -0.040000	   -0.050000	   17.363281
   10.6222	 -0.001500	  0.059000	  0.994000	   -0.010000	    0.380000	    0.040000	   17.375000
   10.6322	  0.012000	  0.024500	  0.963500	   -0.130000	    0.140000	   -0.200000	   17.378906
   10.6422	  0.002500	  0.059500	  1.008500	   -0.090000	   -0.330000	    0.070000	   17.363281
   10.6522	  0.009500	  0.027000	  1.002500	   -0.220000	    0.090000	   -0.060000	   17.363281
   10.6622	  0.007000	  0.064500	  0.984000	   -0.090000	    0.210000	    0.040000	   17.375000
   10.6722	  0.015500	  0.028000	  0.967000	   -0.010000	   -0.110000	   -0.060000	   17.363281
   10.6822	 -0.002000	  0.055500	  0.995000	   -0.110000	   -0.350000	    0.080000	   17.390625
   10.6922	  0.006500	  0.023500	  0.997500	   -0.270000	   -0.180000	   -0.060000	   17.382813
   10.7022	  0.006000	  0.053500	  0.982000	    0.080000	    0.000000	    0.020000	   17.382813
   10.7122	  0.013500	  0.028000	  0.972500	   -0.230000	   -0.380000	   -0.160000	   17.402344
   10.7222	 -0.005500	  0.055500	  1.005500	   -0.100000	   -0.630000	    0.060000	   17.382813
   10.7322	 -0.001000	  0.031500	  1.013000	   -0.090000	   -0.300000	    0.000000	   17.367188
   10.7422	 -0.000500	  0.056500	  0.989500	    0.210000	    0.040000	   -0.020000	   17.386719
   10.7522	  0.015500	  0.028500	  0.963500	   -0.030000	   -0.390000	   -0.050000	   17.375000
   10.7622	 -0.002500	  0.053500	  0.994500	   -0.140000	   -0.640000	    0.030000	   17.382813
   10.7722	 -0.003500	  0.027500	  1.004500	   -0.240000	   -0.400000	    0.020000	   17.390625
   10.7822	 -0.008000	  0.049500	  0.981500	    0.080000	    0.000000	    0.070000	   17.398438
   10.7922	  0.001000	  0.026500	  0.961000	   -0.020000	    0.070000	   -0.030000	   17.378906
   10.8022	 -0.016500	  0.051000	  0.989500	   -0.090000	   -0.080000	    0.120000	   17.375000
   10.8122	 -0.011000	  0.032500	  1.007000	   -0.280000	    0.360000	   -0.100000	   17.355469
   10.8222	 -0.007000	  0.059500	  0.990000	    0.120000	    0.810000	    0.040000	   17.375000
   10.8322	  0.053500	  0.025000	  0.974500	   -0.290000	    0.310000	   -0.100000	   17.390625
   10.8422	  0.048000	  0.055500	  1.005500	    0.060000	   -0.670000	    0.090000	   17.371094
   10.8522	  0.015000	  0.030500	  1.010000	   -0.280000	   -0.960000	   -0.020000	   17.386719
   10.8622	  0.024000	  0.058000	  0.990500	   -0.070000	   -0.840000	    0.110000	   17.398438
   10.8722	  0.024000	  0.024500	  0.972000	   -0.140000	   -1.360000	    0.070000	   17.367188
   10.8822	 -0.002000	  0.057000	  0.997500	    0.040000	   -1.670000	    0.180000	   17.398438
   10.8922	  0.000000	  0.027500	  1.012000	   -0.390000	   -1.600000	    0.040000	   17.398438
   10.9022	 -0.029000	  0.061500	  0.990500	    0.040000	   -0.860000	    0.120000	   17.402344
   10.9122	 -0.029500	  0.029000	  0.965500	   -0.270000	   -0.690000	    0.030000	   17.410156
   10.9222	  0.006500	  0.056000	  1.007000	   -0.410000	   -0.720000	    0.110000	   17.394531
   10.9322	 -0.004000	  0.017000	  1.000000	   -0.340000	   -0.170000	   -0.070000	   17.398438
   10.9422	 -0.011500	  0.063500	  0.971500	    0.320000	    0.730000	    0.070000	   17.390625
   10.9522	  0.039000	  0.024000	  0.973500	   -0.410000	   -0.090000	   -0.130000	   17.386719
   10.9622	  0.005000	  0.051000	  1.013500	    0.240000	   -0.220000	    0.050000	   17.390625
   10.9726	 -0.045000	  0.029500	  0.990500	   -0.390000	    0.220000	   -0.070000	   17.375000
   10.9822	  0.015500	  0.055000	  0.997500	    0.190000	    0.760000	    0.120000	   17.367188
   10.9922	  0.048000	  0.026500	  0.979500	    0.030000	    0.260000	   -0.030000	   17.375000
   11.0022	 -0.033000	  0.059000	  1.001000	   -0.060000	   -0.320000	    0.150000	   17.367188
   11.0122	 -0.027500	  0.023500	  1.005000	   -0.360000	    0.340000	   -0.100000	   17.363281
   11.0223	  0.062000	  0.052500	  0.998500	    0.320000	    0.840000	    0.120000	   17.359375
   11.0322	  0.016000	  0.023500	  0.962500	   -0.010000	    0.040000	    0.060000	   17.371094
   11.0422	 -0.044500	  0.068000	  0.988500	    0.010000	    0.130000	    0.040000	   17.382813
   11.0522	  0.022000	  0.030500	  1.002000	   -0.240000	    0.340000	   -0.040000	   17.390625
   11.0622	  0.049000	  0.054500	  1.004500	    0.110000	    0.440000	    0.070000	   17.386719
   11.0722	 -0.026500	  0.031500	  0.939000	    0.030000	    0.080000	    0.070000	   17.386719
   11.0822	 -0.020000	  0.057000	  0.991000	   -0.020000	    0.020000	    0.120000	   17.390625
   11.0922	  0.030500	  0.029500	  1.027000	   -0.180000	    0.160000	    0.020000	   17.390625
   11.1022	  0.002500	  0.056500	  0.978500	    0.110000	    0.370000	   -0.040000	   17.386719
   11.1122	 -0.023000	  0.032500	  0.964500	   -0.010000	    0.090000	   -0.030000	   17.398438
   11.1223	  0.013500	  0.052000	  1.001500	   -0.090000	    0.060000	    0.050000	   17.394531
   11.1322	  0.007000	  0.032000	  0.996000	   -0.120000	    0.190000	   -0.130000	   17.398438
   11.1422	 -0.014500	  0.060500	  0.989000	    0.120000	    0.290000	    0.110000	   17.402344
   11.1522	  0.009000	  0.028500	  0.961500	   -0.190000	    0.200000	   -0.010000	   17.394531
   11.1622	  0.004000	  0.053500	  0.991000	   -0.260000	   -0.310000	    0.070000	   17.394531
   11.1722	 -0.020000	  0.023500	  0.999500	   -0.420000	   -0.090000	   -0.110000	   17.390625
   11.1822	  0.010000	  0.050000	  0.977000	    0.220000	    0.540000	    0.000000	   17.398438
   11.1922	  0.013000	  0.024000	  0.967000	   -0.330000	   -0.210000	   -0.010000	   17.402344
   11.2022	 -0.027000	  0.057500	  1.010000	    0.030000	   -0.230000	    0.310000	   17.382813
   11.2122	 -0.013000	  0.033000	  0.997500	   -0.370000	    0.360000	   -0.010000	   17.347656
   11.2223	  0.022500	  0.061000	  0.993000	    0.190000	    0.190000	    0.020000	   17.375000
   11.2322	  0.008000	  0.029000	  0.962000	    0.030000	    0.050000	   -0.020000	   17.410156
   11.2422	 -0.017500	  0.065000	  0.985000	    0.050000	   -0.280000	    0.070000	   17.390625
   11.2522	 -0.003500	  0.025000	  1.003000	   -0.400000	   -0.190000	   -0.100000	   17.394531
   11.2622	  0.022500	  0.055500	  0.980000	    0.130000	    0.240000	    0.090000	   17.402344
   11.2722	  0.000500	  0.024000	  0.956500	   -0.060000	   -0.310000	   -0.020000	   17.394531
   11.2822	 -0.026000	  0.061000	  1.008000	   -0.270000	   -0.460000	    0.140000	   17.417969
   11.2922	  0.003500	  0.027000	  1.001000	   -0.220000	    0.130000	   -0.120000	   17.429688
   11.3022	  0.020500	  0.063000	  0.992500	    0.100000	   -0.100000	    0.100000	   17.417969
   11.3122	 -0.010000	  0.023000	  0.963000	   -0.070000	   -0.260000	   -0.050000	   17.398438
   11.3223	 -0.015500	  0.068000	  0.993500	   -0.020000	   -0.430000	   -0.050000	   17.382813
   11.3322	  0.008500	  0.024000	  1.000500	   -0.390000	   -0.210000	   -0.160000	   17.378906
   11.3422	  0.007500	  0.061500	  0.989000	    0.030000	    0.010000	    0.010000	   17.386719
   11.3522	 -0.006000	  0.020000	  0.955000	   -0.310000	   -0.350000	   -0.150000	   17.394531
   11.3622	 -0.002000	  0.062000	  1.004000	   -0.080000	   -0.460000	    0.000000	   17.410156
   11.3722	  0.001500	  0.023500	  1.006000	   -0.270000	   -0.370000	   -0.130000	   17.394531
   11.3822	  0.005000	  0.066000	  1.000000	    0.060000	    0.070000	    0.070000	   17.402344
   11.3922	  0.009500	  0.020000	  0.959000	   -0.210000	   -0.220000	   -0.130000	   17.402344
   11.4022	  0.000000	  0.060500	  1.004500	   -0.170000	   -0.530000	    0.040000	   17.402344
   11.4122	 -0.001500	  0.023000	  0.999500	   -0.250000	   -0.290000	   -0.120000	   17.382813
   11.4223	  0.025000	  0.062000	  0.981000	    0.220000	    0.010000	    0.150000	   17.394531
   11.4322	  0.014000	  0.020000	  0.967500	   -0.320000	   -0.580000	   -0.060000	   17.402344
   11.4422	 -0.015000	  0.064500	  1.008000	   -0.010000	   -0.570000	    0.060000	   17.398438
   11.4522	 -0.001500	  0.021000	  0.994500	   -0.310000	   -0.210000	   -0.110000	   17.386719
   11.4622	  0.022500	  0.063000	  1.003500	    0.230000	   -0.020000	   -0.040000	   17.386719
   11.4722	  0.009500	  0.017500	  0.967000	   -0.090000	   -0.350000	   -0.190000	   17.386719
   11.4822	 -0.009000	  0.064500	  0.996000	    0.010000	   -0.560000	    0.060000	   17.421875
   11.4922	  0.003000	  0.016500	  1.010000	   -0.390000	   -0.210000	   -0.170000	   17.398438
   11.5022	  0.029500	  0.062000	  0.994500	    0.180000	    0.100000	    0.070000	   17.398438
   11.5122	  0.009000	  0.019500	  0.951000	   -0.080000	   -0.510000	   -0.130000	   17.394531
   11.5223	 -0.008500	  0.065000	  1.019000	    0.050000	   -0.340000	   -0.020000	   17.390625
   11.5322	  0.016500	  0.022000	  0.994000	   -0.400000	   -0.020000	   -0.060000	   17.378906
   11.5422	  0.023000	  0.061000	  0.985000	    0.130000	   -0.210000	    0.100000	   17.410156
   11.5522	  0.003000	  0.020500	  0.987500	   -0.230000	   -0.340000	   -0.050000	   17.421875
   11.5622	  0.005500	  0.063500	  0.991500	   -0.070000	   -0.300000	    0.090000	   17.402344
   11.5722	  0.004000	  0.022500	  1.008000	   -0.400000	   -0.340000	   -0.070000	   17.382813
   11.5822	  0.017000	  0.063000	  1.013000	    0.190000	    0.390000	    0.120000	   17.406250
   11.5922	  0.023500	  0.019500	  0.951000	   -0.240000	    0.040000	   -0.170000	   17.414063
   11.6022	 -0.006000	  0.066000	  1.012000	    0.040000	   -0.250000	    0.080000	   17.414063
   11.6122	  0.005000	  0.025000	  1.006000	   -0.400000	    0.290000	   -0.080000	   17.398438
   11.6223	  0.035500	  0.065000	  0.981000	    0.030000	    0.320000	    0.040000	   17.386719
   11.6322	  0.008500	  0.019500	  0.970500	   -0.120000	   -0.200000	   -0.140000	   17.398438
   11.6422	 -0.005500	  0.059000	  1.005500	   -0.120000	    0.040000	   -0.010000	   17.394531
   11.6523	  0.017500	  0.019500	  0.995500	   -0.270000	    0.120000	   -0.150000	   17.398438
   11.6622	  0.022500	  0.058000	  1.004500	    0.100000	    0.330000	   -0.040000	   17.421875
   11.6723	  0.005500	  0.020500	  0.970000	   -0.250000	    0.040000	    0.010000	   17.421875
   11.6822	 -0.006000	  0.059500	  1.008500	   -0.060000	   -0.170000	    0.100000	   17.425781
   11.6922	  0.002000	  0.024500	  1.012500	   -0.260000	    0.320000	   -0.030000	   17.417969
   11.7022	  0.019000	  0.058500	  0.985000	    0.130000	    0.590000	    0.180000	   17.410156
   11.7123	  0.004000	  0.024000	  0.965000	   -0.150000	    0.010000	    0.000000	   17.402344
   11.7223	 -0.005000	  0.055500	  1.004500	   -0.050000	    0.210000	    0.080000	   17.402344
   11.7323	  0.004500	  0.025000	  1.000500	   -0.240000	    0.370000	   -0.010000	   17.421875
   11.7423	  0.014500	  0.049000	  0.990500	   -0.030000	    0.710000	   -0.020000	   17.402344
   11.7523	  0.016000	  0.028500	  0.969000	   -0.010000	    0.490000	    0.080000	   17.394531
   11.7623	 -0.001000	  0.056500	  1.005500	   -0.080000	    0.090000	    0.110000	   17.421875
   11.7723	 -0.000500	  0.030000	  1.004500	   -0.170000	    0.590000	   -0.030000	   17.437500
   11.7823	  0.028000	  0.058500	  0.984000	    0.080000	    0.750000	    0.010000	   17.425781
   11.7923	  0.011500	  0.030000	  0.974000	   -0.130000	    0.210000	   -0.070000	   17.398438
   11.8023	 -0.015000	  0.061500	  0.991500	   -0.080000	    0.220000	    0.040000	   17.410156
   11.8123	 -0.003500	  0.029500	  0.998500	   -0.120000	    0.330000	   -0.060000	   17.394531
   11.8223	  0.019500	  0.053000	  0.996000	    0.020000	    0.690000	   -0.040000	   17.417969
   11.8323	  0.004500	  0.025000	  0.955000	   -0.090000	    0.300000	   -0.100000	   17.410156
   11.8423	 -0.023500	  0.055500	  1.000000	   -0.080000	    0.090000	    0.080000	   17.386719
   11.8523	 -0.006500	  0.029000	  1.011500	   -0.160000	    0.620000	    0.020000	   17.414063
   11.8623	  0.021000	  0.056500	  0.989000	    0.050000	    0.580000	    0.020000	   17.425781
   11.8723	 -0.001500	  0.026000	  0.967500	    0.030000	    0.300000	    0.000000	   17.410156
   11.8823	 -0.013500	  0.059500	  0.996000	   -0.040000	    0.210000	    0.080000	   17.441406
   11.8923	  0.005000	  0.025000	  0.993500	   -0.300000	    0.290000	   -0.050000	   17.437500
   11.9023	  0.020500	  0.057000	  0.989500	    0.130000	    0.530000	   -0.010000	   17.410156
   11.9123	 -0.004000	  0.023500	  0.949500	   -0.070000	    0.020000	    0.050000	   17.414063
   11.9223	 -0.024000	  0.055000	  0.994000	    0.010000	   -0.150000	    0.100000	   17.421875
   11.9323	 -0.004500	  0.027500	  1.011000	   -0.380000	    0.200000	   -0.050000	   17.429688
   11.9423	  0.010500	  0.057000	  0.983500	    0.080000	    0.440000	    0.100000	   17.437500
   11.9523	 -0.010500	  0.028000	  0.964500	   -0.150000	   -0.050000	    0.060000	   17.421875
   11.9623	 -0.013000	  0.062000	  0.999000	    0.110000	    0.020000	    0.150000	   17.417969
   11.9726	 -0.001000	  0.027500	  0.995000	   -0.210000	    0.040000	   -0.010000	   17.417969
   11.9823	  0.005500	  0.061000	  0.989000	    0.140000	    0.360000	    0.150000	   17.421875
   11.9923	  0.005000	  0.025000	  0.960000	   -0.140000	   -0.010000	   -0.140000	   17.414063
   12.0023	 -0.009000	  0.062500	  0.991500	    0.010000	   -0.310000	    0.090000	   17.429688
   12.0123	 -0.011500	  0.029000	  0.998000	   -0.210000	    0.000000	   -0.030000	   17.441406
   12.0223	  0.016500	  0.063500	  0.984500	    0.200000	    0.260000	    0.000000	   17.445313
   12.0323	  0.007000	  0.021500	  0.963000	   -0.170000	   -0.240000	   -0.140000	   17.460938
   12.0423	 -0.022000	  0.068000	  1.001000	   -0.060000	   -0.360000	    0.030000	   17.457031
   12.0523	 -0.005000	  0.020000	  1.007000	   -0.420000	   -0.020000	   -0.060000	   17.425781
   12.0623	  0.021500	  0.070000	  0.992500	    0.170000	    0.240000	    0.080000	   17.437500
   12.0723	 -0.000500	  0.016500	  0.955000	   -0.110000	   -0.390000	   -0.150000	   17.445313
   12.0823	 -0.017000	  0.073000	  1.007500	   -0.060000	   -0.320000	    0.050000	   17.437500
   12.0923	  0.001000	  0.022500	  0.995500	   -0.350000	   -0.110000	   -0.120000	   17.437500
   12.1023	  0.009500	  0.069500	  0.990000	    0.130000	    0.030000	   -0.100000	   17.433594
   12.1123	 -0.003500	  0.020000	  0.964500	   -0.420000	   -0.390000	   -0.180000	   17.425781
   12.1223	 -0.000500	  0.065000	  1.001000	    0.020000	   -0.200000	   -0.050000	   17.437500
   12.1323	 -0.003000	  0.019000	  0.995500	   -0.340000	   -0.260000	   -0.220000	   17.441406
   12.1423	  0.009000	  0.065000	  1.005000	    0.190000	    0.040000	    0.020000	   17.441406
   12.1523	  0.011500	  0.015000	  0.958000	   -0.180000	   -0.350000	   -0.080000	   17.429688
   12.1623	 -0.011500	  0.065000	  1.002000	   -0.100000	   -0.640000	    0.040000	   17.437500
   12.1723	 -0.012000	  0.022500	  1.005000	   -0.340000	   -0.160000	   -0.050000	   17.421875
   12.1823	  0.019500	  0.066000	  0.987000	    0.120000	    0.050000	    0.000000	   17.437500
   12.1923	  0.011000	  0.020000	  0.960000	   -0.380000	   -0.570000	   -0.130000	   17.453125
   12.2023	 -0.008500	  0.067000	  1.001500	   -0.110000	   -0.690000	    0.090000	   17.464844
   12.2123	 -0.001000	  0.019000	  0.997000	   -0.520000	   -0.410000	   -0.180000	   17.468750
   12.2223	  0.015500	  0.062000	  0.998000	    0.140000	    0.070000	    0.110000	   17.441406
   12.2323	  0.005500	  0.020000	  0.965000	   -0.270000	   -0.260000	   -0.020000	   17.425781
   12.2423	 -0.008500	  0.065000	  1.003000	   -0.180000	   -0.630000	    0.050000	   17.417969
   12.2523	  0.005500	  0.022500	  1.005500	   -0.560000	   -0.200000	   -0.100000	   17.414063
   12.2623	  0.026500	  0.068000	  0.981500	    0.060000	   -0.020000	   -0.010000	   17.441406
   12.2723	  0.004000	  0.023000	  0.963500	   -0.350000	   -0.460000	   -0.070000	   17.429688
   12.2823	 -0.004500	  0.066500	  1.008000	   -0.150000	   -0.470000	    0.070000	   17.433594
   12.2923	  0.015000	  0.022500	  0.986500	   -0.500000	   -0.400000	   -0.120000	   17.437500
   12.3023	  0.015500	  0.061500	  0.994000	    0.100000	   -0.050000	   -0.080000	   17.437500
   12.3123	  0.010000	  0.021000	  0.964000	   -0.290000	   -0.110000	   -0.110000	   17.433594
   12.3223	  0.003500	  0.061500	  0.994500	   -0.200000	   -0.540000	    0.040000	   17.433594
   12.3323	 -0.003500	  0.025500	  1.020500	   -0.370000	   -0.250000	   -0.150000	   17.453125
   12.3423	  0.023000	  0.064000	  0.997000	    0.070000	    0.300000	    0.000000	   17.445313
   12.3523	  0.017500	  0.023500	  0.947000	   -0.250000	   -0.290000	   -0.130000	   17.441406
   12.3623	 -0.012500	  0.057000	  1.011500	   -0.270000	   -0.370000	    0.010000	   17.441406
   12.3723	  0.010000	  0.024000	  1.001500	   -0.320000	    0.090000	   -0.170000	   17.398438
   12.3823	  0.028500	  0.053000	  0.982500	   -0.040000	    0.130000	   -0.050000	   17.398438
   12.3923	 -0.002000	  0.025000	  0.973500	   -0.270000	   -0.280000	   -0.060000	   17.414063
   12.4023	 -0.009500	  0.045500	  0.997500	   -0.260000	   -0.030000	    0.060000	   17.425781
   12.4123	  0.008000	  0.027500	  1.017500	   -0.340000	   -0.010000	   -0.040000	   17.445313
   12.4223	  0.010000	  0.048500	  1.001000	   -0.020000	    0.310000	   -0.080000	   17.460938
   12.4323	  0.009000	  0.029000	  0.967000	   -0.160000	    0.090000	   -0.020000	   17.449219
   12.4423	  0.003000	  0.046500	  0.999000	   -0.220000	   -0.200000	    0.060000	   17.421875
   12.4523	  0.003000	  0.029000	  1.014500	   -0.460000	   -0.020000	    0.090000	   17.417969
   12.4623	  0.017500	  0.051000	  0.983000	    0.030000	    0.350000	    0.140000	   17.433594
   12.4723	  0.014500	  0.030000	  0.971000	   -0.140000	    0.020000	    0.070000	   17.429688
   12.4823	 -0.005500	  0.050500	  0.998500	    0.010000	   -0.100000	    0.160000	   17.398438
   12.4923	  0.004500	  0.028000	  1.008000	   -0.310000	    0.130000	    0.020000	   17.398438
   12.5023	  0.023500	  0.055500	  0.988000	    0.240000	    0.470000	    0.100000	   17.441406
   12.5123	  0.009000	  0.027000	  0.974500	   -0.120000	   -0.060000	   -0.050000	   17.449219
   12.5223	 -0.009000	  0.061000	  1.010000	   -0.070000	   -0.110000	    0.080000	   17.433594
